AngleX,AngleY,accelx,accely,accelz,gyrox,gyroy,gyroz,totAcc,totGyr
0.1702974081503829,-0.6601978521899551,0.02294921875,0.005859375,1.93701171875,0,1,5,1.93715652374594,5.0990195135927845
-0.21229875840191437,-0.6192612779065292,0.021484375,-0.00732421875,1.93310546875,0,1,5,1.9332387270744904,5.0990195135927845
-0.01369629755310718,-0.75336777076753,0.02587890625,-0.00048828125,1.9287109375,0,0,5,1.9288846094671928,5.0
-0.8326155772881945,-0.6150685885591063,0.021484375,-0.029296875,1.962890625,1,0,5,1.9632268057885713,5.0990195135927845
-0.26928025321493515,-0.3641230011053557,0.0126953125,-0.00927734375,1.9326171875,0,1,5,1.9326811515319693,5.0990195135927845
-0.07006834762053897,-0.6488247037146962,0.0224609375,-0.00244140625,1.94384765625,0,0,5,1.9439789517601456,5.0
0.000361328125,-0.5201150164821097,0.01806640625,0.0,1.93212890625,0,1,5,1.9322133695328814,5.0990195135927845
0.7058874223517692,-0.5498011675575191,0.01904296875,0.0244140625,1.94287109375,0,0,5,1.9431177957179766,5.0
0.033761371339302695,-0.7232652139337986,0.02490234375,0.0009765625,1.93310546875,1,0,5,1.9332661052503137,5.0990195135927845
-0.07056959484392676,-0.49643490380480804,0.01708984375,-0.00244140625,1.93310546875,0,0,5,1.9331825512700642,5.0
-0.18547841013334673,-0.5671405208838455,0.01953125,-0.00634765625,1.91748046875,0,1,5,1.9175904438915392,5.0990195135927845
-0.05139159576034502,-0.5049344042336947,0.017578125,-0.001953125,1.93603515625,1,1,5,1.9361159395583063,5.196152422706632
-0.15549808245075125,-0.7754074821568722,0.02685546875,-0.00537109375,1.9326171875,0,1,5,1.9328112319288357,5.0990195135927845
0.028988374624434012,-0.5811447564751878,0.02001953125,0.0009765625,1.91796875,0,1,3,1.9180734765077037,3.1622776601683795
-0.07036115732490525,-0.532722006370395,0.0185546875,-0.00244140625,1.93798828125,0,1,5,1.938078640085337,5.0990195135927845
-0.8624150317036634,-0.5219779601262251,0.01806640625,-0.02978515625,1.92724609375,1,1,5,1.9275609086205967,5.196152422706632
-0.30069422174789345,-0.7842664548798979,0.02685546875,-0.01025390625,1.9111328125,0,1,7,1.9113489963398433,7.0710678118654755
-0.10865538485523842,-0.5698175596154597,0.01953125,-0.00390625,1.9248046875,1,0,6,1.9249077415651894,6.082762530298219
-0.35132819709319735,-0.6616150078456623,0.02294921875,-0.01220703125,1.9482421875,0,0,5,1.9484155869341528,5.0
-0.22116849063963,-0.7884342555654097,0.02734375,-0.0078125,1.935546875,1,1,5,1.9357557751799626,5.196152422706632
0.780876234417759,-0.43451283068873964,0.01513671875,0.02685546875,1.931640625,0,1,6,1.931886601383914,6.082762530298219
-0.2678777319866168,-0.7015278300107979,0.0244140625,-0.00927734375,1.94091796875,0,1,6,1.9410936806273507,6.082762530298219
0.880091129210424,-0.6378390342013025,0.02197265625,0.0302734375,1.93212890625,0,0,5,1.932490980317261,5.0
-0.09786007330346322,-0.6743390081964676,0.0234375,-0.00341796875,1.95166015625,0,0,5,1.9518038744736625,5.0
0.0996666747784234,-0.3833460025654197,0.01318359375,0.00341796875,1.9306640625,0,0,5,1.930712099688492,5.0
-0.35379975651495194,-0.5620546141211993,0.01953125,-0.01220703125,1.93505859375,0,1,6,1.935195660026197,6.082762530298219
0.14196202784254355,-0.34929903663558787,0.01220703125,0.0048828125,1.9345703125,0,1,7,1.9346149868840044,7.0710678118654755
-0.18323887999709246,-0.7444087889804268,0.02587890625,-0.00634765625,1.939453125,0,1,5,1.9396361603663792,5.0990195135927845
-0.8984291966625974,-0.44508145722344683,0.015625,-0.03125,1.9521484375,0,1,5,1.9524610687946358,5.0990195135927845
-0.900827014542813,-0.7985126871690134,0.02783203125,-0.03125,1.9462890625,0,1,5,1.9467388883131271,5.0990195135927845
0.014689010366299524,-0.7919760667886035,0.02734375,0.00048828125,1.9384765625,0,0,5,1.9386694670429145,5.0
0.1702974081503829,-0.6650978521899551,0.02294921875,0.005859375,1.93701171875,0,0,5,1.93715652374594,5.0
-0.8611875970836806,-0.7867913193897679,0.02734375,-0.02978515625,1.9404296875,0,1,5,1.9408508980156738,5.0990195135927845
0.8790028349379806,-0.6795388335716669,0.0234375,0.0302734375,1.9345703125,0,0,5,1.934949118563758,5.0
-0.06540866712470572,-0.760201213875895,0.0263671875,-0.00244140625,1.93505859375,1,1,5,1.9352397655812226,5.196152422706632
-0.3073884423031813,-0.8250393864398484,0.0283203125,-0.0107421875,1.927734375,1,0,6,1.9279723170338892,6.082762530298219
-0.18456124367574195,-0.4645512472736646,0.01611328125,-0.00634765625,1.927734375,0,1,6,1.9278121669730042,6.082762530298219
-0.311036138107338,-0.4955927185177052,0.01708984375,-0.0107421875,1.93701171875,0,0,5,1.9371168926852385,5.0
-0.05633014512023752,-0.6767424272357045,0.0234375,-0.001953125,1.9306640625,0,1,5,1.9308073061112339,5.0990195135927845
-0.02786603496208151,-0.4936629266475698,0.01708984375,-0.0009765625,1.94384765625,0,0,5,1.9439230250044197,5.0
-0.8298802995108927,-0.7042711300477732,0.0244140625,-0.02880859375,1.94775390625,0,0,6,1.9481199297871115,6.0
0.07619863152350981,-0.5107769793349843,0.017578125,0.00244140625,1.93212890625,1,0,5,1.9322104081361882,5.0990195135927845
-0.24020970965451668,-0.4055210273869456,0.01416015625,-0.00830078125,1.93798828125,0,1,3,1.9380577884203334,3.1622776601683795
0.08405466992266397,-0.41385364014737824,0.0146484375,0.0029296875,1.9638671875,0,1,5,1.9639240030941114,5.0990195135927845
-0.1555769521379284,-0.7758018671599162,0.02685546875,-0.00537109375,1.931640625,0,1,5,1.9318347675203085,5.0990195135927845
-0.2493879364114272,-0.8497848628026092,0.029296875,-0.0087890625,1.93603515625,1,0,3,1.9362767572690522,3.1622776601683795
-0.13471659901558028,-0.5741767203089203,0.02001953125,-0.0048828125,1.9580078125,1,0,3,1.9581162420296745,3.1622776601683795
-0.19456784485854464,-0.6828144263730347,0.02392578125,-0.0068359375,1.9677734375,0,0,3,1.967930759549353,3.0
-0.1512464597331278,-0.535912081202798,0.0185546875,-0.00537109375,1.9267578125,1,1,6,1.9268546372536977,6.164414002968976
0.31057916790985585,-0.4229045515131656,0.0146484375,0.0107421875,1.94384765625,0,0,5,1.9439325302134576,5.0
0.0857965177429879,-0.6776801013899308,0.0234375,0.0029296875,1.927734375,0,1,6,1.9278790729793553,6.082762530298219
-0.14243268005507284,-0.7864563529521885,0.02685546875,-0.0048828125,1.91748046875,0,0,5,1.917674739390758,5.0
-0.03727283896898157,-0.49603978525688597,0.01708984375,-0.00146484375,1.9345703125,1,0,7,1.934646350766196,7.0710678118654755
-0.8897133057620975,-0.5355325520811908,0.0185546875,-0.03076171875,1.9296875,1,1,6,1.930021867084652,6.164414002968976
-0.15411776691766446,-0.8439765086674377,0.029296875,-0.00537109375,1.94921875,0,0,5,1.94944630366789,5.0
-0.8955738154668409,-0.7353281586082996,0.025390625,-0.03076171875,1.92724609375,0,1,5,1.9276588061825097,5.0990195135927845
-0.07969045850153311,-0.6899060100825697,0.02392578125,-0.0029296875,1.93359375,1,1,5,1.9337439892902921,5.196152422706632
-0.08413311673227356,-0.48793506280600085,0.01708984375,-0.0029296875,1.947265625,0,1,3,1.9473428203926724,3.1622776601683795
-0.29225242438018695,-0.8367076804514249,0.02880859375,-0.01025390625,1.93359375,1,0,7,1.9338355327447831,7.0710678118654755
-0.09705092086651396,-0.6407971455978861,0.0224609375,-0.00341796875,1.96826171875,0,0,5,1.9683928392778864,5.0
-0.21504014153311554,-0.598517443959727,0.0205078125,-0.00732421875,1.90869140625,0,1,3,1.908815627253307,3.1622776601683795
0.005407812499999999,-0.7308927913084882,0.025390625,0.0,1.9375,1,1,6,1.937666362880331,6.164414002968976
-0.0802269697839212,-0.45084059199361315,0.015625,-0.0029296875,1.92529296875,1,1,6,1.9253586001605094,6.164414002968976
-0.1271485674215691,-0.7470214541828443,0.02587890625,-0.00439453125,1.9326171875,0,1,5,1.9327954426462242,5.0990195135927845
-0.10858006530219477,-0.5123272047092621,0.017578125,-0.00390625,1.9267578125,1,0,5,1.9268419544159203,5.0990195135927845
0.7531519814990516,-0.6154103200935978,0.021484375,0.02587890625,1.94287109375,1,1,5,1.9431622122424979,5.196152422706632
-0.027934238580415317,-0.6240387237288226,0.021484375,-0.0009765625,1.93310546875,0,0,3,1.9332250995046112,3.0
-0.07010378771662086,-0.6491507741178267,0.0224609375,-0.00244140625,1.94287109375,0,0,7,1.9430024552499099,7.0
0.08616293107531936,-0.48142239831022526,0.0166015625,0.0029296875,1.91650390625,0,1,5,1.9165780489241229,5.0990195135927845
-0.26682320818317296,-0.6754631686872343,0.0234375,-0.00927734375,1.94873046875,0,0,5,1.9488934874302137,5.0
-0.08523799969519343,-0.6713673674784079,0.02294921875,-0.0029296875,1.91943359375,0,0,6,1.9195730177636179,6.0
-0.15539201621826795,-0.7037721239879244,0.0244140625,-0.00537109375,1.9345703125,0,1,6,1.934731813224296,6.082762530298219
-0.013583902118884678,-0.5684757264509519,0.02001953125,-0.00048828125,1.96044921875,0,1,5,1.9605514936740462,5.0990195135927845
-0.8834053258119783,-0.6942479967895575,0.02392578125,-0.0302734375,1.9228515625,0,1,5,1.9232386891478606,5.0990195135927845
-0.1686076479430702,-0.4879919835098262,0.01708984375,-0.005859375,1.947265625,0,1,5,1.9473494317511253,5.0990195135927845
-0.31183872367845233,-0.5772224285760855,0.02001953125,-0.0107421875,1.931640625,0,1,5,1.9317742312118529,5.0990195135927845
0.2277809881207743,-0.5918017924351577,0.0205078125,0.0078125,1.92919921875,0,1,5,1.9293240347736809,5.0990195135927845
0.11328668717162538,-0.6157475982030118,0.021484375,0.00390625,1.943359375,0,1,6,1.9434820548589056,6.082762530298219
-0.8893928524891416,-0.8206771379449282,0.02880859375,-0.03125,1.96044921875,1,1,5,1.960909900243083,5.196152422706632
-0.07039884507929721,-0.5094586158778691,0.017578125,-0.00244140625,1.9375,0,0,5,1.9375812759579902,5.0
0.042989646963300654,-0.582034241890383,0.02001953125,0.00146484375,1.93115234375,0,0,5,1.9312566639806839,5.0
-0.03726766912737886,-0.410391342573319,0.01416015625,-0.00146484375,1.9375,1,0,5,1.9375522975631487,5.0990195135927845
-0.20448257533032285,-0.47550416567319037,0.0166015625,-0.00732421875,1.9609375,1,0,5,1.9610214519387565,5.0990195135927845
-0.8880352117198238,-0.6021076029083197,0.02099609375,-0.03076171875,1.94384765625,0,1,5,1.944204420836922,5.0990195135927845
0.0856301893100637,-0.8455161177033881,0.029296875,0.0029296875,1.93408203125,0,1,5,1.934306127157162,5.0990195135927845
0.07141717019182012,-0.5540432412436823,0.01904296875,0.00244140625,1.9296875,0,0,3,1.929783004065364,3.0
-0.22654297914691549,-0.6905254502379858,0.02392578125,-0.0078125,1.93212890625,0,1,5,1.932292831982641,5.0990195135927845
-0.16989824764736272,-0.4775415037239361,0.0166015625,-0.005859375,1.9326171875,0,1,6,1.9326973735102042,6.082762530298219
0.07624310633465839,-0.7036180404163537,0.0244140625,0.00244140625,1.9345703125,1,1,5,1.9347258981361104,5.196152422706632
0.028670591315163266,-0.49084079159381705,0.01708984375,0.0009765625,1.935546875,0,1,6,1.9356225669680496,6.082762530298219
0.7167179386558008,-0.6155236621522698,0.02099609375,0.0244140625,1.91357421875,0,0,3,1.913845127763787,3.0
-0.12394759520581003,-0.5695894916176206,0.01953125,-0.00439453125,1.9091796875,1,1,5,1.9092846463516295,5.196152422706632
0.13252980827242075,-0.8328491185728364,0.02880859375,0.00439453125,1.94189453125,1,0,5,1.9421131834878773,5.0990195135927845
0.02881805542149401,-0.8746059869293393,0.0302734375,0.0009765625,1.943359375,0,0,5,1.9435954041653765,5.0
0.02870276451672112,-0.7420099053300621,0.02587890625,0.0009765625,1.9453125,0,1,5,1.9454848737832076,5.0990195135927845
-0.14162087808138535,-0.7534532716110001,0.02587890625,-0.0048828125,1.9287109375,0,0,5,1.9288907278741156,5.0
-0.17008293348464043,-0.8200507249036247,0.0283203125,-0.005859375,1.927734375,0,1,5,1.9279512942323334,5.0990195135927845
-0.07136220560792665,-0.7475188887869144,0.025390625,-0.00244140625,1.9072265625,0,0,5,1.9073971282897368,5.0
-0.23648686256158682,-0.7481549952999185,0.0263671875,-0.00830078125,1.96630859375,0,1,5,1.966502890260048,5.0990195135927845
0.14418105034339285,-0.5271426998856069,0.01806640625,0.0048828125,1.90625,0,1,5,1.9063418632010105,5.0990195135927845
-0.0696739775744412,-1.695708799222513,0.05859375,-0.00244140625,1.93408203125,0,1,5,1.934970927845601,5.0990195135927845
-0.7114133532671326,-0.6935400996758765,0.0244140625,-0.02490234375,1.9638671875,0,1,5,1.9641768004207658,5.0990195135927845
0.1606155791699436,-0.6020684734284782,0.02099609375,0.00537109375,1.94189453125,1,1,5,1.9420154621164805,5.196152422706632
-0.8791604557661766,-1.7757904650851413,0.06103515625,-0.0302734375,1.9296875,0,0,5,1.9308898515898774,5.0
-0.0795530847002615,-0.7315071941293885,0.025390625,-0.0029296875,1.93603515625,1,1,3,1.9362038614626045,3.3166247903554
-0.037098208905426186,-0.8085993052681013,0.02783203125,-0.00146484375,1.9326171875,1,0,5,1.932818139699419,5.0990195135927845
0.07117170447181975,-0.6646660909058945,0.02294921875,0.00244140625,1.9384765625,0,0,5,1.9386139405429668,5.0
0.029127009026626315,-0.6264348184181633,0.021484375,0.0009765625,1.91064453125,0,1,5,1.9107655682576523,5.0990195135927845
-0.11303269565127567,-0.6904515875439721,0.02392578125,-0.00390625,1.93212890625,0,1,5,1.9322809868557695,5.0990195135927845
-0.4098627921289026,-0.568013314794759,0.01953125,-0.01416015625,1.9150390625,1,1,3,1.9151910063104582,3.3166247903554
-0.12668064830123285,-0.5506961115514751,0.01904296875,-0.00439453125,1.94189453125,0,0,5,1.9419928725570488,5.0
0.00046875,-0.6779124178237762,0.0234375,0.0,1.92724609375,0,1,4,1.9273886017824438,4.123105625617661
0.047772837986611374,-0.701498550925009,0.0244140625,0.00146484375,1.9404296875,1,1,5,1.9405838204896777,5.196152422706632
-0.19584897546603486,-0.5699300960622243,0.01953125,-0.0068359375,1.908203125,1,1,5,1.9083153214361175,5.196152422706632
-0.2904186675738695,-0.5916709293757273,0.0205078125,-0.01025390625,1.94677734375,1,0,5,1.9469123604069147,5.0990195135927845
-0.19673502011455268,-0.5302460243484919,0.0185546875,-0.0068359375,1.947265625,0,1,6,1.9473660212647153,6.082762530298219
-0.09884397978574688,-0.5480011071702754,0.01904296875,-0.00341796875,1.93408203125,0,1,3,1.9341787975193285,3.1622776601683795
-0.2411905466684994,-0.6491275520988663,0.0224609375,-0.00830078125,1.9287109375,0,1,6,1.928859579418592,6.082762530298219
-0.4739375256166367,-0.3301396121277387,0.01171875,-0.0166015625,1.9658203125,0,1,5,1.9659253398887258,5.0990195135927845
-0.8319350027509285,-0.4281953555140828,0.01513671875,-0.029296875,1.96484375,1,1,5,1.9651204515381098,5.196152422706632
0.11332450297364276,-0.5878328085555887,0.0205078125,0.00390625,1.9423828125,0,1,5,1.942494998567051,5.0990195135927845
-0.06502297657823505,-0.47288852070396103,0.0166015625,-0.00244140625,1.951171875,1,1,5,1.9512440283401087,5.196152422706632
-0.17783724080697558,-0.6716950060407462,0.0234375,-0.00634765625,1.9453125,1,1,5,1.9454640402234034,5.196152422706632
0.1138573948280048,-0.44920609751980534,0.015625,0.00390625,1.931640625,0,1,3,1.9317077686763215,3.1622776601683795
0.07099004119596035,-0.756071403485678,0.0263671875,0.00244140625,1.9453125,0,1,3,1.945492716947917,3.1622776601683795
-0.3712018500715917,-0.7580071291236592,0.02587890625,-0.0126953125,1.91748046875,0,0,5,1.9176971181043916,5.0
-0.05634419249907212,-0.306215300562519,0.0107421875,-0.001953125,1.93896484375,0,1,6,1.9389955839526847,6.082762530298219
0.09070170519582894,-0.6260156007111336,0.021484375,0.0029296875,1.9267578125,1,0,5,1.9268798170793562,5.0990195135927845
-0.16906117172806376,-0.7442110725051037,0.02587890625,-0.005859375,1.93994140625,0,1,6,1.9401228594466162,6.082762530298219
-0.05583705280816144,-0.7894399231329167,0.02734375,-0.001953125,1.94482421875,0,0,6,1.9450174130834603,6.0
-0.9187094118505631,-0.38340254214523184,0.01318359375,-0.03125,1.9091796875,0,1,5,1.9094809370105696,5.0990195135927845
-0.1433505357592407,-0.6327433326000448,0.021484375,-0.0048828125,1.90673828125,0,0,3,1.9068655677344575,3.0
-0.19920562758530527,-0.6512590418606575,0.0224609375,-0.0068359375,1.92236328125,0,1,6,1.9225066472845158,6.082762530298219
-0.01361153394838811,-0.8815001310195469,0.0302734375,-0.00048828125,1.92822265625,0,0,5,1.9284603525902344,5.0
-0.21151811848505908,-0.6594553193556248,0.02294921875,-0.00732421875,1.93994140625,0,1,5,1.9400909696467228,5.0990195135927845
0.048098843782367125,-0.7912673918631348,0.02734375,0.00146484375,1.92822265625,1,1,5,1.9284170810556207,5.196152422706632
-0.3387764537207069,-0.6787371667417847,0.0234375,-0.01171875,1.939453125,0,0,5,1.939630137314864,5.0
-0.2539326718438151,-0.5462953923862182,0.01904296875,-0.0087890625,1.9404296875,0,1,3,1.9405430308060139,3.1622776601683795
-0.056319088465527765,-0.5479723916474251,0.01904296875,-0.001953125,1.93408203125,0,1,5,1.9341767636284448,5.0990195135927845
-0.2985008063267068,-0.7499896794758218,0.02587890625,-0.01025390625,1.92529296875,0,1,5,1.9254941900458356,5.0990195135927845
-0.14938000290310463,-0.6704901305888287,0.0234375,-0.00537109375,1.94873046875,1,1,6,1.9488788071321717,6.164414002968976
-0.9075206172581594,-0.7050949040934124,0.0244140625,-0.03125,1.93212890625,0,1,4,1.9325358261399903,4.123105625617661
-0.098773135861967,-0.7897545517225351,0.02734375,-0.00341796875,1.93212890625,0,1,5,1.932325405707139,5.0990195135927845
-0.12233171196693284,-0.6762731353822018,0.0234375,-0.00439453125,1.93212890625,1,1,6,1.9322760513648092,6.164414002968976
-0.18362959121989922,-0.8503834385345365,0.029296875,-0.00634765625,1.9345703125,0,0,4,1.9348025464193965,4.0
-0.18496528235268098,-0.6276295417531023,0.021484375,-0.00634765625,1.92236328125,0,0,5,1.9224938117474593,5.0
0.029154036699285183,-0.6128763752642614,0.02099609375,0.0009765625,1.908203125,0,1,5,1.9083188821281523,5.0990195135927845
-0.3110726494677529,-0.5523430393716924,0.01904296875,-0.0107421875,1.9365234375,0,0,5,1.9366468581643672,5.0
0.05700101521717568,-0.7063886287569167,0.0244140625,0.001953125,1.9404296875,0,0,7,1.940584250496836,7.0
-0.21060469669089413,-0.6755962132689366,0.0234375,-0.00732421875,1.9482421875,0,0,5,1.9483969261270488,5.0
-0.3530784458467179,-0.6932287981097109,0.02392578125,-0.01220703125,1.9384765625,0,0,5,1.9386626416120412,5.0
-0.19799428555655949,-0.7183344103405176,0.02490234375,-0.0068359375,1.93359375,0,1,5,1.9337661820408407,5.0990195135927845
-0.07028510017379701,-0.7220566331496852,0.02490234375,-0.00244140625,1.9365234375,0,0,5,1.9366850831189715,5.0
-0.8724248877978024,-0.5777832984865876,0.02001953125,-0.0302734375,1.947265625,0,0,5,1.9476038295701148,5.0
0.05726297669602683,-0.7799665670027676,0.02685546875,0.001953125,1.93310546875,0,0,5,1.9332929897483737,5.0
-0.1773579535809365,-0.7030142033654241,0.0244140625,-0.00634765625,1.9501953125,1,0,7,1.950358453229712,7.0710678118654755
-0.09364883117959466,-0.6506411919543157,0.0224609375,-0.00341796875,1.9384765625,1,0,5,1.93860969758886,5.0990195135927845
-0.30515903496268704,-0.6445705327497037,0.0224609375,-0.0107421875,1.9423828125,1,1,5,1.942542374982094,5.196152422706632
-0.22252829816375228,-0.6223644394035239,0.02197265625,-0.0078125,1.96728515625,0,1,5,1.9674233704976969,5.0990195135927845
-0.15080884405725686,-0.6531459282892971,0.0224609375,-0.00537109375,1.93115234375,1,0,7,1.9312904279606857,7.0710678118654755
0.028791092065876944,-0.6099726002472498,0.02099609375,0.0009765625,1.9326171875,0,0,6,1.932731482396736,6.0
0.04773531411723326,-0.6310221538745092,0.02197265625,0.00146484375,1.93994140625,1,1,6,1.9400663914085827,6.164414002968976
-0.18381120742503468,-0.6663490054656677,0.02294921875,-0.00634765625,1.93408203125,0,0,5,1.9342285963621852,5.0
-0.09895918118992886,-0.49657946136958236,0.01708984375,-0.00341796875,1.9326171875,0,0,6,1.9326957698226035,6.0
-0.7477685895555873,-0.6216576046121969,0.021484375,-0.02587890625,1.94189453125,0,0,6,1.9421857961216002,6.0
0.8381760816652019,-0.6525573039978432,0.0224609375,0.02880859375,1.9306640625,0,0,5,1.9310096196073792,5.0
0.12760586311488117,-0.7434424213833667,0.02587890625,0.00439453125,1.94140625,0,1,7,1.941583698230047,7.0710678118654755
-0.1420798755273504,-0.7652999555345501,0.0263671875,-0.0048828125,1.92236328125,0,1,5,1.9225502998706787,5.0990195135927845
0.043036757972296016,-0.6621381168032928,0.02294921875,0.00146484375,1.931640625,0,1,5,1.9317775018254142,5.0990195135927845
-0.151236307148653,-0.5501402365310528,0.01904296875,-0.00537109375,1.9267578125,1,1,5,1.9268594010297353,5.196152422706632
-0.19929597053142942,-0.09491872662161505,0.00341796875,-0.0068359375,1.92529296875,0,1,5,1.925308138472922,5.0990195135927845
-0.08309628465601389,-0.8460593885423068,0.02978515625,-0.0029296875,1.96533203125,0,1,5,1.965559902841665,5.0990195135927845
0.20401306017347298,-0.8365836761343516,0.02880859375,0.0068359375,1.93310546875,1,0,7,1.9333322059145743,7.0710678118654755
-0.2772261756075669,-0.6310788792374906,0.02197265625,-0.009765625,1.9404296875,1,1,6,1.940578660396344,6.164414002968976
-0.027542077579001976,-0.8389917153445947,0.029296875,-0.0009765625,1.94921875,0,1,5,1.9494391490658651,5.0990195135927845
0.000322265625,-0.46159115753719404,0.01611328125,0.0,1.939453125,0,1,5,1.9395200596809787,5.0990195135927845
-0.22723648561741777,-0.4503579583783606,0.015625,-0.0078125,1.927734375,0,1,7,1.9278135273770363,7.0710678118654755
-0.23452967012567702,-0.6443625504107382,0.0224609375,-0.00830078125,1.94287109375,1,1,3,1.943018652409714,3.3166247903554
-0.0855048629315279,-0.40980452032685705,0.01416015625,-0.0029296875,1.91748046875,0,1,5,1.9175349908493435,5.0990195135927845
-0.1409911235393103,-0.47570173986261016,0.0166015625,-0.0048828125,1.93994140625,0,1,5,1.940018585843594,5.0990195135927845
0.08553346533220914,-0.4778552970564739,0.0166015625,0.0029296875,1.9306640625,0,1,5,1.9307376614069798,5.0990195135927845
0.10289673162134606,-0.7102977933237075,0.02490234375,0.00341796875,1.96826171875,1,0,5,1.9684222115012122,5.0990195135927845
-0.07122023345751734,-0.8134339339586844,0.02783203125,-0.00244140625,1.90966796875,0,1,5,1.9098723342929835,5.0990195135927845
-0.26789196167992607,-0.7723389113866324,0.02685546875,-0.00927734375,1.9404296875,0,1,6,1.9406376935018514,6.082762530298219
0.043162623396073976,-0.5843983799951057,0.02001953125,0.00146484375,1.92333984375,0,0,6,1.9234445877006585,6.0
-0.19981694666012675,-0.5099618610984844,0.017578125,-0.0068359375,1.91748046875,0,1,5,1.9175732237799263,5.0990195135927845
0.04769368301072857,-0.6164219261944329,0.021484375,0.00146484375,1.94140625,1,1,4,1.9415256762853834,4.242640687119285
0.05696190465541962,-0.5607832093843772,0.01953125,0.001953125,1.9384765625,0,1,5,1.9385759381013798,5.0990195135927845
-0.2121436160623652,-0.46267570746194,0.01611328125,-0.00732421875,1.935546875,0,1,5,1.9356278018604727,5.0990195135927845
-0.09915919288426814,-0.35018244463374637,0.01220703125,-0.00341796875,1.9306640625,0,1,5,1.9307056783340433,5.0990195135927845
-0.057018900793943575,-0.6126187441262132,0.02099609375,-0.001953125,1.9091796875,0,1,7,1.9092961346560733,7.0710678118654755
-0.893561260891327,-0.7052672653850618,0.0244140625,-0.03076171875,1.931640625,0,1,5,1.9320398116857216,5.0990195135927845
-0.027365940037128403,-0.8100856402889026,0.0283203125,-0.0009765625,1.962890625,0,0,5,1.963095158031649,5.0
0.8412280629331543,-0.3678523161716935,0.0126953125,0.02880859375,1.9345703125,1,0,5,1.934826452175924,5.0990195135927845
-0.09373412211277087,-0.4949541051806492,0.01708984375,-0.00341796875,1.93896484375,1,0,5,1.9390431688253456,5.0990195135927845
-0.16555408880054123,-0.6124269163061055,0.02099609375,-0.005859375,1.92529296875,1,0,5,1.9254163663338737,5.0990195135927845
0.01459733883885086,-0.6184796930686591,0.021484375,0.00048828125,1.93505859375,0,1,7,1.9351779189607987,7.0710678118654755
0.08555242770115275,-0.6334022225243602,0.02197265625,0.0029296875,1.9326171875,0,1,5,1.9327443116232261,5.0990195135927845
-0.14129244071992283,-0.6045721304377565,0.02099609375,-0.0048828125,1.9345703125,0,1,5,1.9346904072272175,5.0990195135927845
0.014425068589523565,-0.5973230831371311,0.02099609375,0.00048828125,1.95751953125,0,1,6,1.9576321895587427,6.082762530298219
-0.0983906521107034,-0.4463873930196916,0.015625,-0.00341796875,1.9443359375,0,1,5,1.9444017231501776,5.0990195135927845
0.1563653548546228,-0.5197403585873361,0.01806640625,0.00537109375,1.93310546875,0,1,6,1.9331973507622078,6.082762530298219
-0.3056280082272278,-0.6504511638497672,0.0224609375,-0.0107421875,1.939453125,1,0,5,1.9396129284931902,5.0990195135927845
-0.16349774413252394,-0.5437555479840571,0.01904296875,-0.005859375,1.94921875,1,1,5,1.949320574529948,5.196152422706632
-0.11318088616304021,-0.563044973916971,0.01953125,-0.00390625,1.93115234375,0,1,5,1.9312550590967374,5.0990195135927845
0.155877393343423,-0.7294869696118379,0.025390625,0.00537109375,1.94091796875,0,1,7,1.941091469741338,7.0710678118654755
-0.08349745244173269,-0.3489840145278938,0.01220703125,-0.0029296875,1.96435546875,0,0,5,1.9643955819256005,5.0
-0.18132027349410143,-0.7976126855552678,0.02783203125,-0.00634765625,1.95947265625,0,0,7,1.9596805875690049,7.0
-0.223207936992185,-0.7669224806333048,0.0263671875,-0.0078125,1.91845703125,1,1,7,1.918654123203417,7.14142842854285
-0.18421956968201572,-0.549036221703284,0.01904296875,-0.00634765625,1.9306640625,0,1,5,1.9307684091127257,5.0990195135927845
-0.013724760228735073,-0.695988096162578,0.02392578125,-0.00048828125,1.93017578125,0,0,5,1.9303241251020642,5.0
-0.04269953279149066,-0.4250584711673207,0.0146484375,-0.00146484375,1.9130859375,0,1,5,1.9131425787820042,5.0990195135927845
-0.06553021620505775,-0.6900719555469763,0.02392578125,-0.00244140625,1.93310546875,1,1,5,1.9332550676990499,5.196152422706632
-0.013626020584122812,-0.6425851170992906,0.0224609375,-0.00048828125,1.94775390625,0,1,5,1.9478834696778171,5.0990195135927845
0.07124922513104677,-0.8009740935040771,0.02783203125,0.00244140625,1.93896484375,0,1,5,1.9391661217457468,5.0990195135927845
0.014572361165332405,-0.6173806078523005,0.021484375,0.00048828125,1.9384765625,0,1,5,1.9385956773266406,5.0990195135927845
-0.1566815875894121,-0.6809705021657176,0.0234375,-0.00537109375,1.9189453125,0,1,5,1.9190959531560803,5.0990195135927845
-0.09499724382056325,-0.5682515403207565,0.01953125,-0.00341796875,1.91357421875,1,1,7,1.9136769431911989,7.14142842854285
-0.013930315620928259,-0.33506441381159285,0.01171875,-0.00048828125,1.935546875,0,1,5,1.935582411793,5.0990195135927845
0.7335407507593692,-0.7420089270329694,0.025390625,0.02490234375,1.9072265625,0,1,5,1.9075581174023768,5.0990195135927845
-0.04222047396314921,-0.735774334635872,0.025390625,-0.00146484375,1.9248046875,0,1,5,1.9249727049044294,5.0990195135927845
0.10486736639332082,-0.790421756539774,0.02734375,0.00341796875,1.93017578125,1,1,5,1.9303724795226662,5.196152422706632
0.02869110473250638,-0.6078227464395163,0.02099609375,0.0009765625,1.939453125,0,0,6,1.9395670170683303,6.0
0.014623065208255416,-0.5643975907604597,0.01953125,0.00048828125,1.92626953125,0,1,5,1.9263686083320701,5.0990195135927845
-0.28605926950423705,-0.6829767662182441,0.0234375,-0.009765625,1.91357421875,0,1,5,1.9137426615150124,5.0990195135927845
-0.23646171585490325,-0.7542806232632534,0.02587890625,-0.00830078125,1.9267578125,1,0,5,1.9269494774871088,5.0990195135927845
0.028779748435334103,-0.6655339806053456,0.02294921875,0.0009765625,1.93603515625,0,0,5,1.9361714145579967,5.0
0.08523568940745269,-0.5747593598099541,0.02001953125,0.0029296875,1.93896484375,0,1,6,1.9390704035693958,6.082762530298219
-0.16471776670430727,-0.7515695751767228,0.02587890625,-0.005859375,1.93359375,1,0,5,1.9337757988203155,5.0990195135927845
0.8566952522081934,-0.6366950219661972,0.02197265625,0.029296875,1.9208984375,0,1,5,1.921247488403664,5.0990195135927845
-0.07131315528663117,-0.4728480649037769,0.01611328125,-0.00244140625,1.91357421875,0,0,5,1.9136436159749788,5.0
-0.28411260132099525,-0.3649728627452583,0.0126953125,-0.009765625,1.92822265625,0,1,6,1.9282891770859782,6.082762530298219
-0.11273647974974682,-0.7028511363331705,0.0244140625,-0.00390625,1.93701171875,0,1,5,1.9371695082804823,5.0990195135927845
-0.15028871431787644,-0.6084068471089542,0.02099609375,-0.00537109375,1.93798828125,1,0,5,1.9381094558520577,5.0990195135927845
-0.1364383628173454,-0.5954519591341385,0.0205078125,-0.0048828125,1.93408203125,1,0,6,1.9341969175437053,6.082762530298219
0.028726733493385424,-0.6036888096441894,0.02099609375,0.0009765625,1.93701171875,0,1,5,1.9371257543592528,5.0990195135927845
-0.09442218473765537,-0.5555655174847247,0.01904296875,-0.00341796875,1.9248046875,1,0,4,1.9249019201484427,4.123105625617661
0.019446659793758186,-0.47839356742958367,0.0166015625,0.00048828125,1.9287109375,1,1,5,1.9287824477447293,5.196152422706632
-0.11432002570699049,-0.640713964348892,0.02197265625,-0.00390625,1.9111328125,0,1,5,1.9112631120350498,5.0990195135927845
0.0852313609086997,-0.7574006936714719,0.0263671875,0.0029296875,1.94189453125,0,1,6,1.9420757405786637,6.082762530298219
0.042892961263829,-0.5807128002047133,0.02001953125,0.00146484375,1.935546875,0,0,6,1.9356509583912456,6.0
-0.24099670514124832,-0.6628336499616455,0.02294921875,-0.00830078125,1.93017578125,0,1,5,1.9303300536785526,5.0990195135927845
0.8390039139824431,-0.6700649290403476,0.02294921875,0.0283203125,1.9072265625,1,1,5,1.9075748654893991,5.196152422706632
0.1900753479303192,-0.7761586181318801,0.02685546875,0.00634765625,1.93017578125,1,1,5,1.930373035313563,5.196152422706632
-0.12779066368976863,-0.622055418039853,0.021484375,-0.00439453125,1.92431640625,0,1,5,1.9244413531300357,5.0990195135927845
-0.05620481397854997,-0.5468581620702965,0.01904296875,-0.001953125,1.93798828125,0,1,5,1.9380828226931914,5.0990195135927845
-0.1272298865117205,-0.6335477901348269,0.02197265625,-0.00439453125,1.9326171875,0,1,5,1.9327470871658294,5.0990195135927845
-0.12733215352197808,-0.7672680805608417,0.0263671875,-0.00439453125,1.9296875,0,0,5,1.9298726352114062,5.0
-0.013494409045042986,-0.665357309612275,0.0234375,-0.00048828125,1.96337890625,0,1,6,1.963518852553312,6.082762530298219
-0.45135563766710635,-0.6376468937380944,0.02197265625,-0.015625,1.9208984375,1,1,5,1.9210876464746791,5.196152422706632
-0.2555864513485439,-0.5783653813147058,0.02001953125,-0.0087890625,1.927734375,0,1,7,1.927858358336457,7.0710678118654755
0.014477668719111379,-0.48985214602811716,0.01708984375,0.00048828125,1.939453125,0,1,5,1.93952848013383,5.0990195135927845
-0.036800708482307966,-0.8266049195220441,0.02880859375,-0.00146484375,1.9453125,1,1,6,1.9455263564129155,6.164414002968976
-0.2067059667204318,-0.8298583092394954,0.02880859375,-0.00732421875,1.93798828125,1,1,6,1.938216230846414,6.164414002968976
-0.258004310068493,-0.5025203625128146,0.01708984375,-0.0087890625,1.91015625,0,0,6,1.9102529177554188,6.0
0.1431744535533747,-0.49982270766881975,0.01708984375,0.0048828125,1.91943359375,0,0,5,1.9195158830896268,5.0
-0.1428854816231248,-0.7169851676766463,0.0244140625,-0.0048828125,1.912109375,0,0,7,1.9122714635397755,7.0
-0.013692704158659781,-0.572936844338725,0.02001953125,-0.00048828125,1.9453125,0,1,3,1.9454155706959628,3.1622776601683795
-0.09874885674276639,-0.5759097173364005,0.02001953125,-0.00341796875,1.935546875,0,1,5,1.9356534218356631,5.0990195135927845
-0.11261037793091717,-0.7588807757664615,0.0263671875,-0.00390625,1.9384765625,0,1,5,1.9386598130480601,5.0990195135927845
-0.1843654826730084,-0.6064511822588736,0.02099609375,-0.00634765625,1.9287109375,0,1,5,1.9288356615131201,5.0990195135927845
-0.19209446972876149,-0.7854265497016609,0.02734375,-0.0068359375,1.94287109375,1,1,5,1.9430755254582586,5.196152422706632
-0.8408524206502781,-0.4975841600880242,0.01708984375,-0.02880859375,1.91162109375,1,1,5,1.9119145388597258,5.196152422706632
-0.16898975859611773,-0.4891065108750508,0.01708984375,-0.005859375,1.94287109375,0,1,6,1.9429550900533217,6.082762530298219
-0.042070753885477936,-0.5804785546296548,0.02001953125,-0.00146484375,1.9365234375,0,0,5,1.9366274684062235,5.0
-0.008892442380333914,-0.5819263293712805,0.02001953125,-0.00048828125,1.931640625,1,0,5,1.931744425176488,5.0990195135927845
-0.7622753648085173,-0.8291182505280714,0.02880859375,-0.0263671875,1.9404296875,0,1,7,1.9408226440821068,7.0710678118654755
-0.1574930522054968,-0.8479643594468378,0.02880859375,-0.00537109375,1.90771484375,0,0,6,1.9079399122577239,6.0
0.000537109375,-0.7827737518056086,0.02685546875,0.0,1.92626953125,0,0,5,1.9264567275762716,5.0
0.05774515390632871,-0.729881983436235,0.02490234375,0.001953125,1.91552734375,0,0,7,1.9156902009655525,7.0
-0.008859411298767526,-0.5080117472335619,0.017578125,-0.00048828125,1.94287109375,1,0,3,1.9429506725149808,3.1622776601683795
-0.04209218001382901,-0.5758713939547132,0.02001953125,-0.00146484375,1.935546875,0,1,5,1.9356509583912456,5.0990195135927845
-0.05115445046442712,-0.8018747288162932,0.02783203125,-0.001953125,1.93701171875,1,1,5,1.9372126458485646,5.196152422706632
-0.2795493830398709,-0.6982836520703644,0.02392578125,-0.009765625,1.92431640625,1,0,5,1.924489917303538,5.0990195135927845
-0.1556883745230828,-0.6766361771699586,0.0234375,-0.00537109375,1.93115234375,0,1,5,1.9313020322635814,5.0990195135927845
-0.09793578293602336,-0.5288420235754017,0.0185546875,-0.00341796875,1.9521484375,0,1,7,1.952239606444939,7.0710678118654755
-0.08524270209566337,-0.5660570559136197,0.01953125,-0.0029296875,1.9208984375,0,1,5,1.9209999635568324,5.0990195135927845
-0.08499680677461237,-0.8271992475900838,0.0283203125,-0.0029296875,1.92236328125,0,0,5,1.9225741099544673,5.0
0.14233006188334274,-0.6384231653591298,0.02197265625,0.0048828125,1.93212890625,0,0,5,1.932260010932124,5.0
0.05720604958517779,-0.9052968037298953,0.03125,0.001953125,1.93798828125,0,0,7,1.938241201568988,7.0
0.019421115956856534,-0.5376992910223016,0.0185546875,0.00048828125,1.9375,1,0,6,1.9375889050174708,6.082762530298219
-0.10618226619522411,-0.7674847170603813,0.02685546875,-0.00390625,1.96484375,1,0,5,1.9650311541817618,5.0990195135927845
-0.08325364561192189,-0.5107913217693012,0.01806640625,-0.0029296875,1.96728515625,0,1,5,1.9673702915580547,5.0990195135927845
-0.01347882649713449,-0.8536895206764991,0.02978515625,-0.00048828125,1.94775390625,0,1,6,1.947981692230076,6.082762530298219
-0.33900929171937827,-0.8159998603523778,0.0283203125,-0.01171875,1.9375,0,1,5,1.9377424026948629,5.0990195135927845
-0.2963929493685883,-0.6455422842374547,0.0224609375,-0.01025390625,1.939453125,0,1,5,1.9396102856963375,5.0990195135927845
-0.09426092186103283,-0.6354700257278203,0.02197265625,-0.00341796875,1.9267578125,1,1,3,1.9268861274509301,3.3166247903554
0.8211233553321982,-0.03700246650678933,0.00146484375,0.0283203125,1.9365234375,0,1,5,1.9367310628618848,5.0990195135927845
-0.16892814116283997,-0.2819903679653168,0.009765625,-0.005859375,1.9453125,0,0,7,1.9453458361852478,7.0
0.042678693478952305,-0.4378600108682876,0.01513671875,0.00146484375,1.94091796875,0,0,5,1.9409775442900814,5.0
-0.32043030004448925,-0.6790130840572507,0.02392578125,-0.01123046875,1.96484375,0,1,5,1.9650215083685039,5.0990195135927845
-0.8922837327646285,-0.5864413134884052,0.0205078125,-0.03125,1.96533203125,0,0,6,1.9656874436010385,6.0
-0.027992449958814097,-0.5771831630374893,0.02001953125,-0.0009765625,1.93115234375,0,1,5,1.9312563553492592,5.0990195135927845
0.01448256922350122,-0.425682321951475,0.0146484375,0.00048828125,1.93212890625,0,0,5,1.9321844957215115,5.0
-0.037078552822071495,-0.6457029549323355,0.0224609375,-0.00146484375,1.9384765625,1,1,5,1.9386072379010677,5.196152422706632
-0.14927808180766391,-0.543197129375368,0.01904296875,-0.00537109375,1.951171875,1,1,5,1.95127219246775,5.196152422706632
-0.1993190103756575,-0.42297991019434494,0.0146484375,-0.0068359375,1.9228515625,0,1,5,1.9229195090204338,5.0990195135927845
-0.09857442010205776,-0.4379571128737904,0.01513671875,-0.00341796875,1.94091796875,0,0,5,1.940980000974126,5.0
0.034050260629106474,-0.8939721514618086,0.03076171875,0.0009765625,1.92138671875,1,1,5,1.9216332012128803,5.196152422706632
-0.2226423244218834,-0.6925554803325159,0.0244140625,-0.0078125,1.9658203125,0,1,5,1.9659874319643047,5.0990195135927845
-0.11268125637525647,-0.4237352030799354,0.0146484375,-0.00390625,1.94140625,0,0,5,1.9414654421465545,5.0
-0.23458179320224945,-0.573813877145867,0.02001953125,-0.00830078125,1.94287109375,1,1,6,1.9429919638357107,6.164414002968976
-0.1962420569492179,-0.5338079291058359,0.0185546875,-0.0068359375,1.9521484375,0,0,5,1.9522485826613931,5.0
0.056751147098680975,-0.37635426135189975,0.01318359375,0.001953125,1.94140625,0,1,5,1.941451995126455,5.0990195135927845
0.671479288774281,-0.6237292824499419,0.02197265625,0.0234375,1.9609375,0,1,5,1.9612006508603808,5.0990195135927845
-0.9070514311260162,-0.4493921562734934,0.015625,-0.03125,1.93359375,0,1,7,1.933909380804608,7.0710678118654755
-0.15571019387222065,-0.5962137335890442,0.0205078125,-0.00537109375,1.931640625,0,0,5,1.9317569524067972,5.0
0.03362114445789554,-0.5386396714358771,0.0185546875,0.0009765625,1.93408203125,1,0,5,1.9341712782757026,5.0990195135927845
0.005515234375,-0.8943469725521859,0.03076171875,0.0,1.93115234375,1,0,7,1.9313973330497203,7.0710678118654755
-0.1511048341110132,-0.6829171882869635,0.0234375,-0.00537109375,1.92724609375,1,0,6,1.9273960856370325,6.082762530298219
-0.11371538900331256,-0.3419292942076653,0.01171875,-0.00390625,1.9248046875,0,0,5,1.924844324331866,5.0
-0.1716964960227641,-0.5832247101988125,0.02001953125,-0.005859375,1.91162109375,0,1,5,1.9117348979334992,5.0990195135927845
-0.9177016731221946,-0.7466589062987156,0.025390625,-0.03125,1.91064453125,0,0,5,1.9110687510221664,5.0
-0.1072845939649608,-0.7609064749516828,0.0263671875,-0.00390625,1.94580078125,1,0,5,1.945983342086677,5.0990195135927845
0.042943360623263184,-0.6235173321113614,0.021484375,0.00146484375,1.9345703125,0,0,5,1.934690160760296,5.0
-0.13631492199704434,-0.46227526740485503,0.01611328125,-0.0048828125,1.93701171875,1,1,5,1.9370848918582224,5.196152422706632
0.01967140302552049,-0.7916905172452482,0.02734375,0.00048828125,1.92724609375,1,1,5,1.9274401222754691,5.196152422706632
0.8651792725504331,-0.6710664419206684,0.0234375,0.02978515625,1.94482421875,1,1,5,1.9451934900609849,5.196152422706632
-0.8508039039325592,-0.676694668309922,0.0234375,-0.029296875,1.93212890625,0,1,5,1.9324931393559557,5.0990195135927845
-0.22652199959162672,-0.5674459182185494,0.01953125,-0.0078125,1.93310546875,0,0,5,1.9332199197695976,5.0
-0.07938572953206967,-0.8154247691383167,0.0283203125,-0.0029296875,1.9384765625,1,1,5,1.9386856389138394,5.196152422706632
0.028775152463782466,-0.6744506746441316,0.0234375,0.0009765625,1.93701171875,0,1,5,1.937153754521152,5.0990195135927845
-0.24882110621272766,-0.6589814284788483,0.02294921875,-0.0087890625,1.94140625,1,1,5,1.9415617790325208,5.196152422706632
-0.056258421827641236,-0.675881684827649,0.0234375,-0.001953125,1.93310546875,0,1,5,1.9332485314658001,5.0990195135927845
-0.8767725196105433,-0.6428072908608209,0.02197265625,-0.02978515625,1.90625,0,1,3,1.9066092981141987,3.1622776601683795
-0.06529686317875413,-0.5882586644820734,0.0205078125,-0.00244140625,1.94140625,1,1,5,1.9415160978928492,5.196152422706632
-0.3248421790016786,-0.40526665966339287,0.01416015625,-0.01123046875,1.939453125,0,1,5,1.9395373307893908,5.0990195135927845
0.0850189497365394,-0.7554888195176253,0.0263671875,0.0029296875,1.94677734375,0,1,5,1.9469580986204642,5.0990195135927845
-0.023130307306118352,-0.6068115314068496,0.02099609375,-0.0009765625,1.92724609375,1,1,5,1.927360707159329,5.196152422706632
-0.137106762507935,-0.6697018191175714,0.02294921875,-0.0048828125,1.92431640625,1,0,5,1.9244594409501232,5.0990195135927845
-0.11299881126645546,-0.5763590168896847,0.02001953125,-0.00390625,1.93408203125,0,1,3,1.9341895832685736,3.1622776601683795
-0.0420526524416007,-0.6374245086379919,0.02197265625,-0.00146484375,1.935546875,0,0,5,1.9356721439107807,5.0
-0.06557603565755869,-0.676235290703937,0.0234375,-0.00244140625,1.93212890625,1,1,5,1.932272596513636,5.196152422706632
-0.2557785241353747,-0.49819231911777967,0.01708984375,-0.0087890625,1.9267578125,0,0,5,1.9268536473766795,5.0
-0.25376720129326147,-0.3339454480239659,0.01171875,-0.0087890625,1.94287109375,0,1,5,1.9429263145190332,5.0990195135927845
-0.2821261756075669,-0.6359788792374906,0.02197265625,-0.009765625,1.9404296875,0,0,5,1.940578660396344,5.0
-0.1950736515297512,-0.6565813374905412,0.02294921875,-0.0068359375,1.962890625,0,0,5,1.9630366788207576,5.0
-0.17045188397087205,0.0047828125,0.0,-0.005859375,1.93017578125,0,1,5,1.9301846747913627,5.0990195135927845
-0.027918178669150768,-0.7052999334387519,0.0244140625,-0.0009765625,1.93017578125,0,1,6,1.9303304242139785,6.082762530298219
0.183941667495771,-0.7287280451232075,0.025390625,0.00634765625,1.94287109375,0,1,5,1.943047365224811,5.0990195135927845
-0.013561395322297328,-0.8194513352898636,0.0283203125,-0.00048828125,1.9404296875,0,0,5,1.9406364035156158,5.0
-0.16955489572321183,-0.4814686419141447,0.0166015625,-0.005859375,1.9365234375,0,0,5,1.936603461770026,5.0
-0.2782038047003246,-0.661680677515247,0.02294921875,-0.009765625,1.93359375,1,1,5,1.9337545925251058,5.196152422706632
-0.20980256003776673,-0.6838102488920828,0.0234375,-0.00732421875,1.9111328125,1,1,5,1.9112905555149662,5.196152422706632
-0.17974746014006418,-0.7358681783592635,0.025390625,-0.00634765625,1.9248046875,1,1,5,1.924982613324009,5.196152422706632
-0.0088032379784015,-0.6949334250357475,0.02392578125,-0.00048828125,1.93310546875,1,0,5,1.9332535877991173,5.0990195135927845
-0.06557399091460026,-0.7047902522961824,0.0244140625,-0.00244140625,1.931640625,1,1,7,1.931796446591261,7.14142842854285
-0.1086365446234866,-0.5505341430009227,0.01904296875,-0.00390625,1.92529296875,1,1,6,1.9253911054552175,6.164414002968976
0.019485037967505305,-0.5953464154414576,0.0205078125,0.00048828125,1.93408203125,1,0,5,1.9341908159218004,5.0990195135927845
-0.16525058198171758,-0.0001171875,0.0,-0.005859375,1.93359375,1,0,5,1.9336026278205285,5.0990195135927845
-0.21305864858516493,-0.4646888345939008,0.01611328125,-0.00732421875,1.92724609375,0,1,6,1.92732736915335,6.082762530298219
-0.18363041139611144,-0.7175956902387272,0.02490234375,-0.00634765625,1.935546875,0,1,5,1.9357174702901188,5.0990195135927845
-0.1550711995151897,-0.6030474458866754,0.02099609375,-0.00537109375,1.939453125,0,1,5,1.9395742080861706,5.0990195135927845
-0.15507795122627482,-0.7072444478888974,0.0244140625,-0.00537109375,1.9384765625,0,0,6,1.9386377378091146,6.0
-0.8927326866769997,-0.014573513275916081,0.00048828125,-0.03125,1.96533203125,0,0,5,1.965580523401631,5.0
-0.14113811960331282,-0.4243945105974426,0.0146484375,-0.0048828125,1.9384765625,0,0,3,1.9385380579036662,3.0
-0.2219719536916515,-0.639481649257822,0.02197265625,-0.0078125,1.9296875,1,0,5,1.9298284069924923,5.0990195135927845
0.08473765449528312,-0.5573641242664648,0.01953125,0.0029296875,1.9501953125,0,1,5,1.9502953134570116,5.0990195135927845
-0.42575257054520843,-0.6489108581074858,0.0224609375,-0.0146484375,1.9296875,0,1,3,1.9298738088514544,3.1622776601683795
-0.22790285363602367,-0.413746079373211,0.01416015625,-0.0078125,1.92236328125,0,0,3,1.922431307037924,3.0
-0.02812079068071378,-0.7103656411484819,0.0244140625,-0.0009765625,1.91650390625,0,1,5,1.9166596523101276,5.0990195135927845
-0.051473002949885695,-0.49139993728855386,0.01708984375,-0.001953125,1.93359375,1,1,5,1.9336702582125338,5.196152422706632
-0.027806097639675054,-0.8083854609815936,0.02783203125,-0.0009765625,1.93310546875,0,0,5,1.9333060618921605,5.0
-0.11287269619732548,-0.6374722213505092,0.02197265625,-0.00390625,1.935546875,0,0,5,1.935675531108974,5.0
-0.10772244651109417,-0.7021383734882073,0.0244140625,-0.00390625,1.93896484375,1,1,5,1.9391224743515503,5.196152422706632
-0.24108736327243,-0.7057993879565377,0.0244140625,-0.00830078125,1.92919921875,0,1,5,1.9293715492467294,5.0990195135927845
0.18403409412370234,-0.6586819475101461,0.02294921875,0.00634765625,1.94140625,0,1,5,1.9415522622170556,5.0990195135927845
-0.22214929843045517,-0.5496247501259892,0.01904296875,-0.0078125,1.9287109375,1,1,7,1.9288207667502941,7.14142842854285
0.132310429177678,-0.5454819265510347,0.01904296875,0.00439453125,1.9423828125,1,1,7,1.9424811290870063,7.14142842854285
-0.1832998488371356,-0.404761278058428,0.01416015625,-0.00634765625,1.94140625,0,1,5,1.9414682666229586,5.0990195135927845
-0.08341998787030365,-0.516717141229332,0.01806640625,-0.0029296875,1.96337890625,0,0,5,1.9634642109320668,5.0
-0.08317229842194902,-0.5662482707687096,0.02001953125,-0.0029296875,1.96826171875,0,1,3,1.968365707432697,3.1622776601683795
-0.19412250019985425,-0.6935068027794024,0.02392578125,-0.0068359375,1.923828125,1,1,5,1.9239890404030222,5.196152422706632
0.005358984375,-0.6579789252907211,0.02294921875,0.0,1.94384765625,1,1,6,1.9439831216730905,6.164414002968976
-0.22772154750456602,-0.5847276682924256,0.02001953125,-0.0078125,1.9228515625,0,0,5,1.9229716451878356,5.0
-0.1411853909920242,-0.7035840572303043,0.0244140625,-0.0048828125,1.93505859375,0,1,5,1.9352187601280098,5.0990195135927845
-0.2497384855986739,-0.552724713635424,0.01904296875,-0.0087890625,1.93505859375,1,0,5,1.935172251641742,5.0990195135927845
-0.2503674646896841,-0.6641859506044641,0.0234375,-0.0087890625,1.96728515625,0,1,6,1.9674443956634367,6.082762530298219
-0.09723054601657086,-0.6279596945116322,0.02197265625,-0.00341796875,1.96484375,0,0,5,1.9649695778935405,5.0
-0.07005178548824836,-0.5162132109539156,0.01806640625,-0.00244140625,1.94677734375,0,1,5,1.9468627023078884,5.0990195135927845
0.047860672702538305,-0.5394469512376289,0.0185546875,0.00146484375,1.93115234375,1,0,6,1.9312420347969212,6.082762530298219
-0.1411698180912728,-0.5756452350569715,0.02001953125,-0.0048828125,1.9365234375,0,1,3,1.93663306991185,3.1622776601683795
-0.22316567051559089,-0.5121683703640287,0.01806640625,-0.0078125,1.96240234375,0,1,6,1.9625010545083876,6.082762530298219
0.0619911317170199,-0.6885830002380925,0.02392578125,0.001953125,1.93701171875,1,1,5,1.9371604621921534,5.196152422706632
-0.22206067562077433,-0.5921142924351577,0.0205078125,-0.0078125,1.92919921875,1,1,5,1.9293240347736809,5.196152422706632
-0.18393532518783456,-0.7521483809003434,0.02587890625,-0.00634765625,1.93212890625,0,0,5,1.9323126353919506,5.0
-0.05640651021894952,-0.6968983987755217,0.02392578125,-0.001953125,1.927734375,0,0,5,1.9278838342240252,5.0
-0.21215626746308405,-0.5194629171484797,0.01806640625,-0.00732421875,1.93505859375,0,1,5,1.9351567896325133,5.0990195135927845
0.08426301066551159,-0.7486847570956431,0.0263671875,0.0029296875,1.96435546875,0,1,5,1.9645346062753744,5.0990195135927845
-0.8794589940693954,-0.6059311096813829,0.02099609375,-0.0302734375,1.931640625,0,1,5,1.9319919309151412,5.0990195135927845
-0.15573493092378185,-0.776591834445716,0.02685546875,-0.00537109375,1.9296875,0,1,6,1.9298818390010575,6.082762530298219
-0.15605184953948306,-0.783076575131416,0.02685546875,-0.00537109375,1.92578125,0,0,5,1.9259759831579977,5.0
-0.16952444866990865,-0.5239384647668273,0.01806640625,-0.005859375,1.9365234375,0,0,3,1.9366165731236002,3.0
-0.31998145045673565,-0.8504788474184686,0.02978515625,-0.01123046875,1.966796875,0,0,5,1.9670544543735813,5.0
-0.04199277552503234,-0.5175040609111132,0.01806640625,-0.00146484375,1.94189453125,0,1,7,1.9419791222617866,7.0710678118654755
-0.14139494715350315,-0.6619260925644775,0.02294921875,-0.0048828125,1.9326171875,0,1,5,1.9327596078973597,5.0990195135927845
-0.0513449287234034,-0.8238328321069377,0.0283203125,-0.001953125,1.93017578125,1,0,5,1.9303845216229358,5.0990195135927845
-0.013785255163454234,-0.46066328081551927,0.01611328125,-0.00048828125,1.943359375,0,1,7,1.9434262364832917,7.0710678118654755
-0.32274270256626125,-0.5995065348903397,0.02099609375,-0.01123046875,1.951171875,0,1,5,1.951317156479725,5.0990195135927845
-0.1265963358506924,-0.8906054517447828,0.03076171875,-0.00439453125,1.939453125,0,0,6,1.9397020439535622,6.0
0.15628985733533846,-0.411185997104164,0.01416015625,0.00537109375,1.93310546875,0,0,5,1.9331647917299375,5.0
-0.1123866505425244,-0.8709019600737932,0.0302734375,-0.00390625,1.94091796875,0,1,5,1.9411579794606504,5.0990195135927845
0.8374653965365123,-0.5101932733859385,0.017578125,0.02880859375,1.93212890625,0,0,5,1.9324236170982774,5.0
-0.03757756445540222,-0.8273431175240654,0.0283203125,-0.00146484375,1.91064453125,1,1,5,1.9108549685056797,5.196152422706632
-0.11311885806527355,-0.04250865842472705,0.00146484375,-0.00390625,1.9384765625,0,0,6,1.9384810517304756,6.0
-0.08427302023303676,-0.5361459236144636,0.0185546875,-0.0029296875,1.943359375,0,0,3,1.9434501588405761,3.0
-0.07931184344615966,-0.5924233553374767,0.0205078125,-0.0029296875,1.94384765625,1,0,5,1.943958040738277,5.0990195135927845
-0.1812324141630145,-0.666138352433628,0.0234375,-0.00634765625,1.96142578125,0,1,6,1.9615760766532333,6.082762530298219
-0.013871217698718142,-0.5266216755374268,0.01806640625,-0.00048828125,1.92626953125,0,0,7,1.9263543133274998,7.0
0.0561912750256017,-0.6361084051420046,0.0224609375,0.001953125,1.96728515625,0,1,5,1.967414342331638,5.0990195135927845
-0.2277593885627847,-0.7706460284943923,0.0263671875,-0.0078125,1.92138671875,0,0,5,1.9215835102128145,5.0
-0.7754900017126499,-0.6853638484737216,0.0234375,-0.0263671875,1.90771484375,0,1,6,1.9080410032404955,6.082762530298219
-0.19328893468551217,-0.5199832438165225,0.01806640625,-0.0068359375,1.93310546875,1,1,5,1.933201975580268,5.196152422706632
-0.013718360887683748,-0.5934185252917327,0.0205078125,-0.00048828125,1.9404296875,0,0,6,1.9405381163284223,6.0
-0.14936976615061856,-0.6845571211911585,0.02392578125,-0.00537109375,1.94873046875,1,1,5,1.948884740432612,5.196152422706632
-0.22554097595223016,-0.4186977682670628,0.0146484375,-0.0078125,1.9423828125,0,1,5,1.942453758052647,5.0990195135927845
-0.8642841815033173,-0.47759980819331804,0.0166015625,-0.02978515625,1.93408203125,0,1,7,1.9343826071939347,7.0710678118654755
0.07079708743686382,-0.44615726572817993,0.015625,0.00244140625,1.94482421875,0,1,5,1.9448885168374113,5.0990195135927845
0.09994845578249366,-0.6488982055073307,0.0224609375,0.00341796875,1.9287109375,0,1,5,1.9288447466439294,5.0990195135927845
-0.11302041098023986,-0.5102586787628202,0.017578125,-0.00390625,1.9345703125,0,0,5,1.9346541146349456,5.0
-0.013780076148590269,-0.4365812858970634,0.01513671875,-0.00048828125,1.94677734375,0,0,3,1.94683625012773,3.0
0.8339706686420544,-0.785109095533562,0.02685546875,0.0283203125,1.9189453125,1,0,5,1.9193421708146785,5.0990195135927845
-0.07027580032880694,-0.6080437593282894,0.02099609375,-0.00244140625,1.93896484375,0,0,5,1.939080055520065,5.0
-0.1261268350210054,-0.47292674552884173,0.0166015625,-0.00439453125,1.951171875,0,1,6,1.9512474496007328,6.082762530298219
-0.04224627164733607,-0.4682885896308129,0.01611328125,-0.00146484375,1.93212890625,0,0,5,1.9321966499211913,5.0
-0.07066378707243991,-0.6923611241089189,0.02392578125,-0.00244140625,1.9267578125,0,1,5,1.9269079042607837,5.0990195135927845
-0.8363644974418468,-0.7349257568015855,0.02587890625,-0.029296875,1.96533203125,0,1,5,1.9657207374728265,5.0990195135927845
-0.1644553076998327,-0.5752252544717071,0.02001953125,-0.005859375,1.93798828125,1,1,7,1.9381005371675613,7.14142842854285
-0.09330564225897993,-0.6718087917081023,0.0234375,-0.00341796875,1.94482421875,1,1,5,1.9449684420969853,5.196152422706632
0.37337298228359667,-0.41967019505710684,0.0146484375,0.0126953125,1.93603515625,1,1,5,1.9361321943288443,5.196152422706632
-0.22593306311391026,-0.8163438625036715,0.0283203125,-0.0078125,1.9365234375,0,1,5,1.9367462660976436,5.0990195135927845
-0.09954623879876766,-0.666647650339037,0.02294921875,-0.00341796875,1.9189453125,0,1,5,1.9190855795188848,5.0990195135927845
-0.2975933398852483,-0.6481718512224615,0.0224609375,-0.01025390625,1.931640625,0,1,4,1.931798421279289,4.123105625617661
-0.1949577742971699,-0.4527728683915589,0.015625,-0.0068359375,1.91748046875,1,1,5,1.9175563143501742,5.196152422706632
-0.9178761608566502,-0.5409185726649236,0.0185546875,-0.03125,1.91064453125,0,1,5,1.9109901527019324,5.0990195135927845
-0.12628837045811495,-0.5582146054717047,0.01953125,-0.00439453125,1.94775390625,0,1,5,1.94785678655891,5.0990195135927845
-0.08419555964895338,-0.70577558011774,0.0244140625,-0.0029296875,1.9423828125,0,0,5,1.9425384474475689,5.0
-0.19876968835281367,-0.692621898555157,0.02392578125,-0.0068359375,1.92626953125,0,1,5,1.926430242721501,5.0990195135927845
-0.06934733878668199,-0.5719899523742102,0.02001953125,-0.00244140625,1.96533203125,0,0,5,1.9654355077573007,5.0
-0.11295981148037489,-0.8374364687283474,0.02880859375,-0.00390625,1.931640625,0,0,5,1.9318593887789313,5.0
-0.05121896265837806,-0.40405831028464817,0.01416015625,-0.001953125,1.9443359375,1,1,5,1.9443884803650462,5.196152422706632
-0.06573784044496118,-0.811693959618439,0.02783203125,-0.00244140625,1.92529296875,1,0,5,1.925495675909496,5.0990195135927845
-0.0937288591690922,-0.6036224637722706,0.02099609375,-0.00341796875,1.9375,1,1,5,1.9376167754391307,5.196152422706632
-0.08420681361680653,-0.7151693665580212,0.02490234375,-0.0029296875,1.94189453125,0,1,6,1.942056405023229,6.082762530298219
-0.06563183262467175,-0.5197657109594159,0.01806640625,-0.00244140625,1.93359375,1,1,5,1.9336796905222773,5.196152422706632
-0.027880523826508918,-0.6755187251493378,0.0234375,-0.0009765625,1.93408203125,0,1,5,1.9342242821567235,5.0990195135927845
-0.05043416868924123,-0.7351960118485967,0.02587890625,-0.001953125,1.96337890625,1,1,7,1.963550422574732,7.14142842854285
0.1276884732781614,-0.7720723614173899,0.02685546875,0.00439453125,1.9404296875,0,1,5,1.9406204936148739,5.0990195135927845
-0.008817507071618332,-0.5739538176813275,0.02001953125,-0.00048828125,1.94189453125,1,1,6,1.9419977833531907,6.164414002968976
-0.042327387148129884,-0.5552454957875793,0.01904296875,-0.00146484375,1.92578125,0,0,5,1.9258759573964228,5.0
-0.05564435423720826,-0.5554980632602159,0.01953125,-0.001953125,1.95703125,0,1,6,1.9571296834651482,6.082762530298219
-0.11279174487388778,-0.7458742438892918,0.02587890625,-0.00390625,1.935546875,0,1,3,1.935723813435177,3.1622776601683795
-0.7833013124615015,-0.5134145051725683,0.01806640625,-0.02734375,1.958984375,0,1,5,1.9592584967770315,5.0990195135927845
-0.1548504677669919,-1.6403552661382705,0.056640625,-0.00537109375,1.9326171875,0,1,5,1.9334544738547303,5.0990195135927845
-0.1507708128989048,-0.9237717590943504,0.03173828125,-0.00537109375,1.92919921875,1,0,5,1.9294677485696374,5.0990195135927845
0.09887975327340408,-0.3240858900650186,0.01123046875,0.00341796875,1.9453125,0,0,4,1.9453479196778583,4.0
-0.15520202426976154,-0.8023472651818659,0.02783203125,-0.00537109375,1.93603515625,0,1,6,1.9362426492688187,6.082762530298219
-0.04146747000310773,-0.5299922570997552,0.0185546875,-0.00146484375,1.9658203125,0,0,6,1.9659084218836422,6.0
-0.7391918821894249,-0.6375656514098622,0.0224609375,-0.02587890625,1.96435546875,0,1,5,1.9646543256028801,5.0990195135927845
0.014603490717301949,-0.6373856083802956,0.02197265625,0.00048828125,1.935546875,0,0,5,1.9356716512269134,5.0
-0.12684878324612742,-0.7643675966920714,0.0263671875,-0.00439453125,1.93701171875,0,0,5,1.9371961539958715,5.0
0.07097098043616326,-0.727888731217656,0.025390625,0.00244140625,1.9453125,0,1,5,1.945479726689183,5.0990195135927845
-0.7808973417161452,-0.6398058483607864,0.02197265625,-0.02685546875,1.9296875,0,0,5,1.92999944597938,5.0
0.07219723509798456,-0.8593200595215638,0.029296875,0.00244140625,1.9140625,0,0,5,1.9142882544840245,5.0
-0.05123362602885444,-0.5461640464478,0.01904296875,-0.001953125,1.9404296875,1,1,5,1.940524109999004,5.196152422706632
-0.1942939625589337,-0.7419061803798034,0.025390625,-0.0068359375,1.921875,1,0,5,1.9220548716164152,5.0990195135927845
-0.0652126300711904,-0.7580838193819232,0.0263671875,-0.00244140625,1.9404296875,1,1,5,1.9406103578958052,5.196152422706632
-0.18447960800784385,-0.5783194521729045,0.02001953125,-0.00634765625,1.927734375,0,1,5,1.927848773874128,5.0990195135927845
-0.3432272148562523,-0.5020570386161499,0.017578125,-0.01220703125,1.966796875,1,0,5,1.96691330505445,5.0990195135927845
-0.12072122543314347,-0.43382992447904084,0.01513671875,-0.00439453125,1.95947265625,1,0,5,1.9595360478314388,5.0990195135927845
-0.07059743120729281,-0.4774749761641495,0.0166015625,-0.00244140625,1.9326171875,0,1,5,1.932690033544523,5.0990195135927845
-0.16846581984705392,-0.7464813805150212,0.02587890625,-0.005859375,1.94677734375,0,0,5,1.9469581598489456,5.0
-0.11304444537411786,-0.6335383708426308,0.02197265625,-0.00390625,1.9326171875,0,1,6,1.9327460386279811,6.082762530298219
-0.04196162267256466,-0.5313518046008004,0.0185546875,-0.00146484375,1.94287109375,0,1,6,1.9429602438353586,6.082762530298219
-0.25507927278967957,-0.5629943792906767,0.01953125,-0.0087890625,1.931640625,0,1,5,1.9317593591067657,5.0990195135927845
-0.2729050044025263,-0.513040124906273,0.017578125,-0.00927734375,1.90625,0,1,5,1.9063536193701238,5.0990195135927845
-0.18476903048029328,-0.43655567575912446,0.01513671875,-0.00634765625,1.92578125,0,1,5,1.9258511977424286,5.0990195135927845
0.034107471091526564,-0.675586178592768,0.02294921875,0.0009765625,1.9072265625,1,0,5,1.9073648788370614,5.0990195135927845
0.00041015625,-0.5814273417663816,0.0205078125,0.0,1.9638671875,0,1,3,1.9639742616726665,3.1622776601683795
-0.03733016058139246,-0.5490814891318657,0.01904296875,-0.00146484375,1.93017578125,1,1,5,1.9302702730317518,5.196152422706632
0.00534921875,-0.6474812873783155,0.0224609375,0.0,1.93310546875,1,1,5,1.9332359522377336,5.196152422706632
-0.1272298865117205,-0.6335477901348269,0.02197265625,-0.00439453125,1.9326171875,0,1,5,1.9327470871658294,5.0990195135927845
-0.12278883238273286,-0.5407932444117156,0.0185546875,-0.00439453125,1.9267578125,1,0,5,1.9268521625601989,5.0990195135927845
-0.12766646439994886,-0.5215316232295871,0.01806640625,-0.00439453125,1.92724609375,0,1,5,1.9273357810237248,5.0990195135927845
-0.15591670621028003,-0.6397592638902491,0.02197265625,-0.00537109375,1.9287109375,0,0,3,1.9288435723777293,3.0
0.04284645026454514,-0.7707665523448883,0.02685546875,0.00146484375,1.94384765625,0,1,5,1.9440337118161333,5.0990195135927845
-0.2546094111455521,-0.7656071185076915,0.0263671875,-0.0087890625,1.93408203125,0,0,5,1.9342817219320496,5.0
-0.1647040114514755,-0.6520015507734132,0.0224609375,-0.005859375,1.9345703125,1,0,6,1.9347095699342363,6.082762530298219
0.7758540700176488,-0.7317508306688054,0.02490234375,0.0263671875,1.9091796875,0,0,5,1.909524138224888,5.0
-0.2128270017402401,-0.6350581560581561,0.02197265625,-0.00732421875,1.92822265625,0,1,5,1.9283617538933882,5.0990195135927845
-0.25485438419801265,-0.6051076228191432,0.02099609375,-0.0087890625,1.93310546875,0,1,5,1.9332394670302862,5.0990195135927845
-0.2536886931357156,-0.6213645957740447,0.021484375,-0.0087890625,1.94189453125,0,0,5,1.9420332634863458,5.0
-0.04212404162263698,-0.7533871089030263,0.02587890625,-0.00146484375,1.9287109375,0,0,6,1.9288851038846344,6.0
-0.05660172614403269,-0.30763175672451243,0.0107421875,-0.001953125,1.93017578125,0,1,6,1.930206661426076,6.082762530298219
0.8976624170881061,-0.611774452123505,0.02099609375,0.03076171875,1.9248046875,0,0,6,1.9251649810640088,6.0
0.014572262261229842,-0.5209024767603697,0.01806640625,0.00048828125,1.92919921875,0,1,5,1.929283872082846,5.0990195135927845
0.0052808593749999995,-0.5477940860540604,0.01904296875,0.0,1.9345703125,1,1,5,1.934664035088563,5.196152422706632
-0.3396005028826489,-0.6045458651118789,0.02099609375,-0.01171875,1.93505859375,0,1,5,1.9352079801148114,5.0990195135927845
-0.29605169744092485,-0.7013679714144826,0.0244140625,-0.01025390625,1.94140625,0,1,5,1.941586829523779,5.0990195135927845
0.14237527733268923,-0.6478762288532179,0.0224609375,0.0048828125,1.931640625,0,1,5,1.931777378406135,5.0990195135927845
-0.14212547120990737,-0.6559554387387277,0.0224609375,-0.0048828125,1.9228515625,0,0,5,1.9229889409406338,5.0
-0.08491908939718641,-0.5924743491457222,0.0205078125,-0.0029296875,1.927734375,0,1,6,1.9278456821019216,6.082762530298219
0.7445196947206056,-0.4525575149007205,0.015625,0.025390625,1.91552734375,0,1,5,1.9157593348635473,5.0990195135927845
0.043196477654523925,-0.8192816023897581,0.0283203125,0.00146484375,1.92919921875,0,1,5,1.9294076322780833,5.0990195135927845
-0.013778038664105735,-0.5231739007257926,0.01806640625,-0.00048828125,1.93896484375,0,0,5,1.9390490707436547,5.0
-0.09428433812853466,-0.35027225073226387,0.01220703125,-0.00341796875,1.93017578125,1,1,5,1.9302174076114749,5.196152422706632
-0.08514747210761509,-0.6133035379248244,0.02099609375,-0.0029296875,1.92236328125,0,0,7,1.9224801700199337,7.0
-0.055980388709173816,-0.7437591752232415,0.02587890625,-0.001953125,1.94091796875,0,1,5,1.941091469741338,5.0990195135927845
-0.3391883983752025,-0.6557092209666341,0.0224609375,-0.01171875,1.90966796875,1,1,5,1.9098360070133489,5.196152422706632
-0.9055286557396269,-0.6428215591337987,0.02197265625,-0.03076171875,1.90625,0,1,5,1.9066248040616525,5.0990195135927845
-0.8874900495025259,-0.7145524125439197,0.02490234375,-0.03076171875,1.94482421875,0,1,6,1.9452268895687324,6.082762530298219
-0.0419619510971399,-0.7312928854120676,0.025390625,-0.00146484375,1.9365234375,0,1,5,1.936690438245596,5.0990195135927845
-0.212312441248886,-0.7472665675340849,0.02587890625,-0.00732421875,1.93212890625,0,1,7,1.932316090171537,7.0710678118654755
-0.39755391254822464,-0.7680190654127333,0.0263671875,-0.013671875,1.92822265625,0,0,6,1.9284513892806532,6.0
-0.24802399456065094,-0.868576173045431,0.0302734375,-0.0087890625,1.9462890625,1,1,5,1.9465443337989567,5.196152422706632
-0.14940046401194892,-0.3232066777887185,0.01123046875,-0.00537109375,1.95166015625,1,0,6,1.9516998584747067,6.082762530298219
-0.8516896946675762,-0.6489820996573902,0.0224609375,-0.029296875,1.93017578125,0,1,5,1.930528773968985,5.0990195135927845
-0.04216124919419623,-0.4816256673269808,0.0166015625,-0.00146484375,1.935546875,0,0,5,1.9356186253926466,5.0
-0.12206500189205793,-0.4668128462170219,0.01611328125,-0.00439453125,1.9384765625,1,0,5,1.9385485119282841,5.0990195135927845
-0.13900685725592554,-0.501794127646636,0.017578125,-0.0048828125,1.96728515625,0,0,5,1.967369746219051,5.0
0.7553783746554713,-0.8348399852148906,0.02880859375,0.02587890625,1.9248046875,0,1,5,1.925194207835802,5.0990195135927845
-0.9142369448095368,-0.7141696916414924,0.0244140625,-0.03125,1.90771484375,1,1,5,1.9081269700970742,5.196152422706632
-0.19658489611425164,-0.6003334157886838,0.02099609375,-0.0068359375,1.9482421875,0,1,6,1.9483673132007342,6.082762530298219
-0.3703885564754335,-0.5849658716322732,0.02001953125,-0.0126953125,1.92236328125,0,0,3,1.9225094376073188,3.0
-0.06999437785733055,-0.5772959464405019,0.02001953125,-0.00244140625,1.947265625,0,0,5,1.947370061493857,5.0
-0.9182396954205262,-0.38810440233174287,0.01318359375,-0.03125,1.91015625,0,0,6,1.9104573455218066,6.0
-0.10028105216661332,-0.5031890676407186,0.01708984375,-0.00341796875,1.9072265625,0,0,5,1.9073061909340465,5.0
0.8965114310435167,-0.577653869603419,0.02001953125,0.03076171875,1.92724609375,0,1,7,1.9275955413017944,7.0710678118654755
0.21007152592401473,-0.6705967929285306,0.0234375,0.00732421875,1.9619140625,0,0,5,1.9620677228938357,5.0
0.8507190553327286,-0.7471268031298748,0.0263671875,0.02978515625,1.966796875,0,1,6,1.9671991082804157,6.082762530298219
-0.1412209497594495,-0.6042647021911619,0.02099609375,-0.0048828125,1.935546875,0,1,3,1.935666909138278,3.1622776601683795
-0.05127443600486897,-0.779847746414762,0.02685546875,-0.001953125,1.93359375,1,0,6,1.9337812236491776,6.082762530298219
-0.056542587022279475,-0.397754491869705,0.013671875,-0.001953125,1.93017578125,0,0,3,1.9302251892945883,3.0
0.11669258588948997,-0.5103983402861643,0.01806640625,0.00390625,1.96826171875,1,1,5,1.968348507587149,5.196152422706632
-0.26544542819911987,-0.6390421787279819,0.0224609375,-0.00927734375,1.958984375,0,1,6,1.959135101087869,6.082762530298219
-0.15514952298680026,-0.60825363623267,0.02099609375,-0.00537109375,1.9384765625,0,0,5,1.9385977065813955,5.0
-0.07006824360642809,-0.4222199693295632,0.0146484375,-0.00244140625,1.9482421875,0,0,5,1.9482987856949596,5.0
-0.24855516101757455,-0.6724203158227848,0.0234375,-0.0087890625,1.943359375,1,1,5,1.9435205747370594,5.196152422706632
-0.2405860703418883,-0.8038287991824281,0.02783203125,-0.00830078125,1.9326171875,0,1,6,1.9328354090178685,6.082762530298219
-0.3539971560423358,-0.541436763154114,0.0185546875,-0.01220703125,1.90771484375,1,1,6,1.9078441270460875,6.164414002968976
-0.08484430846718946,-0.6111307385555725,0.02099609375,-0.0029296875,1.92919921875,0,0,5,1.9293156933605284,5.0
0.1278873368432157,-0.5899162376331182,0.0205078125,0.00439453125,1.935546875,0,1,4,1.9356605042208999,4.123105625617661
0.09006432772986,-0.532073204807433,0.0185546875,0.0029296875,1.93994140625,1,1,5,1.9400323500344776,5.196152422706632
-0.041992467235256084,-0.7031604672049998,0.0244140625,-0.00146484375,1.93603515625,0,1,5,1.9361896390723012,5.0990195135927845
-0.056070081768818086,-0.7641277595132482,0.0263671875,-0.001953125,1.9375,0,0,5,1.9376803898666894,5.0
-0.098549182083896,-0.5747401337244816,0.02001953125,-0.00341796875,1.939453125,0,1,5,1.9395594572515975,5.0990195135927845
-0.11295864351833118,-1.7123000692040282,0.05859375,-0.00390625,1.9208984375,0,0,7,1.921795851155389,7.0
-0.709597025000059,-0.5400579782669233,0.0185546875,-0.0244140625,1.9306640625,0,0,5,1.9309075703163474,5.0
-0.06475058591170324,-1.757701173376434,0.060546875,-0.00244140625,1.93359375,1,0,6,1.934543014403093,6.082762530298219
-0.2526919835524526,-0.6752850491112582,0.0234375,-0.0087890625,1.94921875,0,0,5,1.9493794652087215,5.0
-0.16940593773427953,-0.864324994292256,0.02978515625,-0.005859375,1.93505859375,0,0,5,1.9352966824375935,5.0
0.15677696296651966,-0.6062177473708843,0.02099609375,0.00537109375,1.9287109375,0,1,5,1.9288326949305268,5.0990195135927845
0.08537593662720394,-0.5665195486552059,0.01953125,0.0029296875,1.935546875,0,0,5,1.9356476327363088,5.0
-0.1266578317166888,-0.8058065096356692,0.02783203125,-0.00439453125,1.939453125,0,0,5,1.9396577940298318,5.0
0.8233175012780409,-0.6855440162185691,0.02392578125,0.0283203125,1.94384765625,1,1,5,1.9442011711284248,5.196152422706632
0.0005566406250000001,-0.806736076366434,0.02783203125,0.0,1.93701171875,0,0,5,1.937211661264285,5.0
-0.2118621146095719,-0.7740667540087707,0.02685546875,-0.00732421875,1.93603515625,0,1,6,1.9362352611751605,6.082762530298219
0.8491755622174918,-0.692507860411683,0.02392578125,0.029296875,1.93798828125,0,0,6,1.9383573788534243,6.0
-0.13645217973665366,-0.4201367073198997,0.0146484375,-0.0048828125,1.935546875,1,1,5,1.9356084634815398,5.196152422706632
-0.21143451538134644,-0.7724987508403165,0.02685546875,-0.00732421875,1.93994140625,0,1,5,1.9401411082870512,5.0990195135927845
-0.2546259478602956,-0.4768673248009491,0.0166015625,-0.0087890625,1.935546875,0,1,5,1.935638025256617,5.0990195135927845
0.1472190230633229,-0.5676250043961634,0.01953125,0.0048828125,1.931640625,1,0,5,1.9317455359686646,5.0990195135927845
-0.09245780401162774,-0.5817864957883332,0.0205078125,-0.00341796875,1.962890625,1,1,5,1.9630007281192745,5.196152422706632
0.07610734092761655,-0.6601010968106464,0.02294921875,0.00244140625,1.9375,1,1,6,1.9376374472810214,6.164414002968976
-0.09410973156390699,-0.7058870565591623,0.0244140625,-0.00341796875,1.9287109375,1,1,7,1.92886847902864,7.14142842854285
0.000390625,-0.5647268862399619,0.01953125,0.0,1.94189453125,0,0,3,1.9419927497869862,3.0
-0.25501975410032374,-0.37820256924506673,0.01318359375,-0.0087890625,1.93310546875,0,1,5,1.9331704032689283,5.0990195135927845
-0.25572661223231336,-0.5644329701762915,0.01953125,-0.0087890625,1.9267578125,0,1,5,1.9268768474855824,5.0990195135927845
0.1699037538917312,-0.6494720344020214,0.0224609375,0.005859375,1.94140625,0,0,5,1.9415450171262658,5.0
-0.07131358352181373,-0.6265027448751922,0.021484375,-0.00244140625,1.91064453125,0,1,5,1.910766878410119,5.0990195135927845
-0.8228605579086269,-0.6628309300711678,0.02294921875,-0.0283203125,1.93115234375,0,1,7,1.9314963322544652,7.0710678118654755
0.09961521437757842,-0.5620386354998594,0.01953125,0.00341796875,1.93408203125,0,1,7,1.9341836665221492,7.0710678118654755
-0.22635020225029454,-0.5621164064655739,0.01953125,-0.0078125,1.9345703125,0,1,4,1.934684676863173,4.123105625617661
0.09948417002245818,-0.5943865194800751,0.0205078125,0.00341796875,1.93701171875,0,0,3,1.9371232927872042,3.0
-0.1268456762273622,-0.6791141324002213,0.0234375,-0.00439453125,1.93798828125,0,0,6,1.9381349815153448,6.0
-0.10731500852484162,-0.7137429836863924,0.02490234375,-0.00390625,1.94580078125,1,1,5,1.9459640453580884,5.196152422706632
-0.14178932857406876,-0.5688265872449073,0.01953125,-0.0048828125,1.92822265625,0,0,5,1.9283277531737903,5.0
-0.10791889054131887,-0.5470354164527161,0.01904296875,-0.00390625,1.9375,1,1,6,1.937597518435621,6.164414002968976
-0.10737750852153505,-0.7898743212742487,0.02734375,-0.00390625,1.94384765625,1,0,7,1.9440438910070275,7.0710678118654755
0.14162028064159257,-0.7477679914837989,0.02587890625,0.0048828125,1.94287109375,0,0,5,1.943049573885321,5.0
-0.7522512123700369,-0.8042129524643202,0.0283203125,-0.0263671875,1.96630859375,0,1,5,1.966689287745235,5.0990195135927845
-0.8504753412604745,-0.8041633020584432,0.02783203125,-0.029296875,1.9326171875,0,1,5,1.9330396070098192,5.0990195135927845
-0.23951085840048084,-0.6162993767401295,0.021484375,-0.00830078125,1.9423828125,0,1,5,1.9425193619714352,5.0990195135927845
0.05702887413894865,-0.6225646431302725,0.021484375,0.001953125,1.9375,0,0,5,1.9376200977143085,5.0
-0.2682050392861938,-0.7165582819781404,0.02490234375,-0.00927734375,1.9384765625,0,1,5,1.9386587062175527,5.0990195135927845
-0.08448455820857899,-0.7224303876386432,0.02490234375,-0.0029296875,1.935546875,0,0,5,1.9357092795963335,5.0
-0.8358154509293394,-0.6507582203208548,0.02294921875,-0.029296875,1.966796875,0,1,5,1.967148932093289,5.0990195135927845
-0.24930742252868862,-0.4385017802002044,0.01513671875,-0.0087890625,1.93896484375,1,0,7,1.9390438450877296,7.0710678118654755
0.06211954085742049,-0.5682597014561394,0.01953125,0.001953125,1.9296875,1,0,5,1.929787328199685,5.0990195135927845
-0.1552619507632774,-0.7742267144602204,0.02685546875,-0.00537109375,1.935546875,0,1,5,1.9357406257482224,5.0990195135927845
-0.09884876285406947,-0.7190005001624278,0.02490234375,-0.00341796875,1.931640625,0,1,5,1.9318041602049132,5.0990195135927845
0.14260017315043294,-0.6630809801846436,0.02294921875,0.0048828125,1.9287109375,0,1,5,1.9288536463224146,5.0990195135927845
-0.09545671834438221,-0.42652817316977776,0.0146484375,-0.00341796875,1.90673828125,1,1,5,1.906797611813003,5.196152422706632
-0.12733215352197808,-0.7672680805608417,0.0263671875,-0.00439453125,1.9296875,0,0,3,1.9298726352114062,3.0
-0.09400918458960177,-0.6338516122756298,0.02197265625,-0.00341796875,1.931640625,1,1,6,1.931768615617162,6.164414002968976
-0.08458717825254715,-0.41956320814042697,0.0146484375,-0.0029296875,1.93798828125,0,1,3,1.9380458555081632,3.1622776601683795
-0.21207370469107104,-0.632798134952982,0.02197265625,-0.00732421875,1.93505859375,0,1,5,1.9351972000415631,5.0990195135927845
-0.22689814981772083,-0.6773718627197424,0.0234375,-0.0078125,1.92919921875,0,1,5,1.9293574000656566,5.0990195135927845
-0.804535662625254,-0.47866518065264074,0.0166015625,-0.02783203125,1.9296875,1,1,5,1.9299596061827804,5.196152422706632
-0.9001487047260498,-0.7247994472898807,0.02490234375,-0.03076171875,1.91748046875,0,1,7,1.9178888805408976,7.0710678118654755
-0.18430274850287945,-0.5684229337108931,0.01953125,-0.00634765625,1.9296875,0,0,5,1.92979677948811,5.0
-0.055883756057360234,-0.8043420844278406,0.02783203125,-0.001953125,1.94287109375,0,0,6,1.9430714149485313,6.0
-0.07034334228822214,-0.5374866059952425,0.0185546875,-0.00244140625,1.9384765625,0,0,7,1.9385668985759859,7.0
0.8570314331418187,-0.45141814108497674,0.015625,0.029296875,1.919921875,0,1,6,1.9202089609241182,6.082762530298219
0.07657798683286648,-0.7776259497662763,0.02685546875,0.00244140625,1.9267578125,1,1,5,1.9269465080006878,5.196152422706632
-0.4022191194677044,-0.6762079290454198,0.02294921875,-0.013671875,1.90625,0,0,6,1.9064371611220892,6.0
-0.2785116756905427,-0.6388714039012514,0.02197265625,-0.009765625,1.931640625,1,0,5,1.9317902756781626,5.0990195135927845
-0.18375939895944746,-0.6044463362492613,0.02099609375,-0.00634765625,1.93505859375,0,1,3,1.935182908651881,3.1622776601683795
0.000439453125,-0.6310516320346229,0.02197265625,0.0,1.93994140625,0,1,5,1.9400658383946427,5.0990195135927845
-0.32558714850322007,-0.6190183121988424,0.021484375,-0.01123046875,1.93408203125,0,1,5,1.9342339582898473,5.0990195135927845
-0.09436197431632648,-0.6410196899147417,0.02197265625,-0.00341796875,1.9248046875,1,0,5,1.9249331326451393,5.0990195135927845
-0.18451442947920965,-0.46443240773016253,0.01611328125,-0.00634765625,1.92822265625,0,1,6,1.9283004285246412,6.082762530298219
0.8598938108994145,-0.7114936048024545,0.0244140625,0.029296875,1.9248046875,1,0,3,1.925182442875088,3.1622776601683795
-0.14292633894361165,-0.6596396711092297,0.0224609375,-0.0048828125,1.912109375,0,0,5,1.912247525174024,5.0
-0.18515973122904647,-0.6806401955982938,0.0234375,-0.00634765625,1.919921875,0,1,7,1.9200754191566627,7.0710678118654755
-0.2680453943318372,-0.48044391445195195,0.0166015625,-0.00927734375,1.94091796875,0,0,5,1.9410111391749205,5.0
-0.11427049708904224,-0.6741295488600683,0.02294921875,-0.00390625,1.91162109375,0,0,5,1.9117628334864774,5.0
0.1555906879882282,-0.5312131893360192,0.0185546875,0.00537109375,1.94287109375,0,1,5,1.9429671155234756,5.0990195135927845
-0.32419722737988016,-0.508218120916153,0.017578125,-0.01123046875,1.94287109375,0,0,6,1.9429830675629116,6.0
-0.1366681173014448,-0.5203437009086632,0.01806640625,-0.0048828125,1.931640625,1,1,7,1.9317312807538969,7.14142842854285
-0.28330812752885903,-0.6763736201472678,0.0234375,-0.009765625,1.93212890625,0,1,7,1.9322957315599265,7.0710678118654755
-0.056483317033115765,-0.48297539464331607,0.0166015625,-0.001953125,1.93017578125,0,0,5,1.9302481636045545,5.0
-0.8331349997372506,-0.5607670749100789,0.01953125,-0.02880859375,1.9404296875,0,1,5,1.940741810991808,5.0990195135927845
-0.2414988204104489,-0.47893220486872357,0.0166015625,-0.00830078125,1.92724609375,0,1,7,1.9273354717644346,7.0710678118654755
-0.05591692510610202,-0.5347832353497443,0.0185546875,-0.001953125,1.9482421875,0,0,5,1.9483315201167057,5.0
-0.25607660877599714,-0.7079726878862665,0.0244140625,-0.0087890625,1.92333984375,0,1,5,1.9235148683136445,5.0990195135927845
-0.008826353694812153,-0.6034115075686847,0.02099609375,-0.00048828125,1.93798828125,1,1,7,1.9381020748747129,7.14142842854285
-0.12006082640685162,-0.6921446941988867,0.0244140625,-0.00439453125,1.966796875,1,1,5,1.9669533054606119,5.196152422706632
0.03347350831514199,-0.5030824022319823,0.017578125,0.0009765625,1.94287109375,1,1,7,1.9429508565792788,7.14142842854285
0.000439453125,-0.6312117270062582,0.02197265625,0.0,1.939453125,0,1,5,1.9395775884699602,5.0990195135927845
-0.09380379253492122,-0.6040827950643229,0.02099609375,-0.00341796875,1.93603515625,1,1,5,1.9361520200384825,5.196152422706632
-0.2671053624280964,-0.7418318650632008,0.02587890625,-0.00927734375,1.9462890625,0,1,5,1.9464832138250976,5.0990195135927845
-0.051392623663892426,-0.6476848278305377,0.0224609375,-0.001953125,1.9326171875,1,1,5,1.93274869081085,5.196152422706632
-0.24977298009831908,-0.6756680373006954,0.0234375,-0.0087890625,1.93408203125,1,1,5,1.934244004160283,5.196152422706632
0.8044743719107585,-0.6060018184937228,0.02099609375,0.02783203125,1.943359375,0,0,5,1.943672070673613,5.0
0.014376336397344478,-0.5952274788241452,0.02099609375,0.00048828125,1.96435546875,0,1,5,1.9644677350313926,5.0990195135927845
-0.15686923211296955,-0.8158873017337496,0.02783203125,-0.00537109375,1.91552734375,0,0,3,1.9157370579663335,3.0
-0.3105849230018922,-0.6788904566119099,0.0234375,-0.0107421875,1.93896484375,0,0,6,1.9391362449031262,6.0
-0.3259562421537202,-0.6765722517480066,0.0234375,-0.01123046875,1.931640625,0,1,3,1.9318154528797478,3.1622776601683795
-0.8887112885636292,-0.648508440007887,0.0224609375,-0.03076171875,1.931640625,1,1,5,1.932016118256839,5.196152422706632
-0.1269284246326291,-0.6036413767660869,0.02099609375,-0.00439453125,1.9375,0,1,5,1.9376187441954793,5.0990195135927845
-0.21267325882919538,-0.5491948483008696,0.01904296875,-0.00732421875,1.93017578125,0,1,6,1.930283612675391,6.082762530298219
-0.027914544483177553,-0.6475007353903761,0.0224609375,-0.0009765625,1.93310546875,0,1,5,1.9332361988900508,5.0990195135927845
-0.4531541845156858,-0.619096365516569,0.021484375,-0.015625,1.93408203125,0,1,5,1.9342644655264354,5.0990195135927845
-0.10783169962807247,-0.5891835459012429,0.0205078125,-0.00390625,1.9384765625,1,1,5,1.9385889746215967,5.196152422706632
-0.16875371278851958,-0.8185254997883782,0.0283203125,-0.005859375,1.94287109375,0,0,5,1.9430863231737312,5.0
-0.05649214181908801,-0.736159851297088,0.025390625,-0.001953125,1.923828125,0,1,5,1.923996661399435,5.0990195135927845
-0.32488505966266745,-0.7038439751923122,0.02392578125,-0.01123046875,1.9091796875,1,0,5,1.9093626281037779,5.0990195135927845
-0.8606509060236452,-0.6640632469957833,0.02294921875,-0.02978515625,1.94189453125,0,0,5,1.9422585287939218,5.0
0.000498046875,-0.7196497259653899,0.02490234375,0.0,1.94287109375,0,0,5,1.9430306774864787,5.0
-0.25348733005342755,-0.8046731350418104,0.02783203125,-0.0087890625,1.9423828125,0,0,5,1.9426020848023766,5.0
-0.023100443138239862,-0.5341869901104079,0.0185546875,-0.0009765625,1.9326171875,1,1,5,1.9327065021681251,5.196152422706632
-0.06853770101755938,-1.6117276451138836,0.056640625,-0.00244140625,1.966796875,0,1,5,1.9676138006160238,5.0990195135927845
0.028728774055278117,-0.5758226582197009,0.02001953125,0.0009765625,1.935546875,0,1,6,1.935650650460473,6.082762530298219
0.08557344898618895,-0.7653797677947451,0.0263671875,0.0029296875,1.93408203125,0,0,7,1.9342639724840127,7.0
-0.16931607728329748,-0.6934616714430976,0.02392578125,-0.005859375,1.9375,0,0,6,1.937656580842904,6.0
-0.12737522444739427,-0.5203342540433805,0.01806640625,-0.00439453125,1.931640625,0,1,5,1.9317301082423723,5.0990195135927845
-0.03737611299990038,-0.5927482917446412,0.0205078125,-0.00146484375,1.9267578125,1,1,5,1.9268675056086582,5.196152422706632
-0.31590071311262974,-0.719296590394534,0.0244140625,-0.0107421875,1.90625,0,0,5,1.9064365983530738,5.0
-0.013859404861219254,-0.506711663744418,0.017578125,-0.00048828125,1.92919921875,0,1,5,1.9292793614514994,5.0990195135927845
0.1839319727489588,-0.5033556076416322,0.017578125,0.00634765625,1.94140625,0,1,5,1.9414962041573622,5.0990195135927845
-0.07957046082183172,-0.43805771111602804,0.01513671875,-0.0029296875,1.9404296875,1,0,5,1.9404909367102727,5.0990195135927845
-0.2625080800355926,-0.5167367553445253,0.01806640625,-0.00927734375,1.9453125,1,1,5,1.9454185119912104,5.196152422706632
0.20102453227170802,-0.9304693695426285,0.03271484375,0.0068359375,1.96337890625,1,1,4,1.963663341958223,4.242640687119285
0.7932170424982403,-0.7164895472352124,0.02490234375,0.02734375,1.9365234375,0,1,5,1.9368765658593534,5.0990195135927845
0.829553155298835,-0.6790002248972772,0.02392578125,0.02880859375,1.96240234375,1,1,5,1.9627596227856758,5.196152422706632
-0.19935872294726248,-0.5851549014981363,0.02001953125,-0.0068359375,1.92138671875,0,0,7,1.921503170609371,7.0
0.04790092417245248,-0.441189829106634,0.01513671875,0.00146484375,1.92626953125,1,0,5,1.9263295598219488,5.0990195135927845
-0.17039027160379547,-0.6358415651801915,0.02197265625,-0.005859375,1.92578125,0,1,5,1.925915510283261,5.0990195135927845
0.8962155016393841,-0.44953228072805745,0.015625,0.03076171875,1.927734375,0,1,5,1.9280431127239077,5.0990195135927845
-0.9146092292249285,-0.5611672584395313,0.01904296875,-0.03125,1.9072265625,1,0,3,1.9075776151612756,3.1622776601683795
0.042866280871197975,-0.9427492205665186,0.03271484375,0.00146484375,1.9482421875,0,0,6,1.9485173922558618,6.0
0.02864460839658862,-0.5043622560474575,0.017578125,0.0009765625,1.93798828125,0,1,5,1.938068245035546,5.0990195135927845
-0.10711369340217561,-0.5995200712830353,0.02099609375,-0.00390625,1.95068359375,1,1,7,1.9508004966339425,7.14142842854285
-0.11237682781334339,-0.6913340989867179,0.02392578125,-0.00390625,1.943359375,0,0,5,1.94351057681657,5.0
-0.25466242590052973,-0.6898414448052437,0.02392578125,-0.0087890625,1.93408203125,0,1,5,1.9342499823528958,5.0990195135927845
-0.7627216086807604,-0.5326101600870928,0.0185546875,-0.0263671875,1.93994140625,0,1,5,1.9402093095045467,5.0990195135927845
-0.28290343541490137,-0.4484438066773423,0.015625,-0.009765625,1.93603515625,0,1,5,1.9361228355382316,5.0990195135927845
-0.08436950882248682,-0.5509446154717282,0.01904296875,-0.0029296875,1.94091796875,0,0,5,1.9410135958164454,5.0
-0.21216430783663276,-0.9458793894939588,0.03271484375,-0.00732421875,1.93212890625,0,1,5,1.9324197306870747,5.0990195135927845
-0.09718520804584177,-0.4828092686465248,0.01708984375,-0.00341796875,1.9677734375,0,1,5,1.967850615926001,5.0990195135927845
-0.22461593856522208,-0.44511673663741785,0.015625,-0.0078125,1.9501953125,0,1,7,1.9502735532940558,7.0710678118654755
-0.1717874589096257,-0.6410813369523084,0.02197265625,-0.005859375,1.91015625,0,1,5,1.9102916084493837,5.0990195135927845
-0.05607573647280019,-0.7307461165626019,0.025390625,-0.001953125,1.93798828125,0,1,5,1.9381555863236277,5.0990195135927845
-0.0982195079639562,-0.7569527634076423,0.0263671875,-0.00341796875,1.943359375,0,1,5,1.9435412451212417,5.0990195135927845
0.00040039062500000003,-0.5792810127398847,0.02001953125,0.0,1.9404296875,0,0,5,1.9405329561135563,5.0
-0.013703323299646623,-0.5733722521776075,0.02001953125,-0.00048828125,1.94384765625,0,1,5,1.9439508046138068,5.0990195135927845
-0.1510153470939077,-0.6967879665217903,0.02392578125,-0.00537109375,1.92822265625,1,0,7,1.9283785685731678,7.0710678118654755
0.005446875,-0.7914985623686621,0.02734375,0.0,1.927734375,1,1,5,1.9279282925515417,5.196152422706632
-0.29174891269768843,-0.8069298527133133,0.02783203125,-0.01025390625,1.93701171875,1,0,5,1.9372387986853128,5.0990195135927845
0.18458973902119152,-0.6606909475275121,0.02294921875,0.00634765625,1.935546875,0,1,5,1.9356933291984475,5.0990195135927845
-0.06582308774361449,-0.4783294715095159,0.0166015625,-0.00244140625,1.92919921875,1,1,5,1.9292721938512278,5.196152422706632
-0.3926539125482246,-0.7680190654127333,0.0263671875,-0.013671875,1.92822265625,1,0,5,1.9284513892806532,5.0990195135927845
-0.7893538561314684,-0.7999006454628956,0.02734375,-0.02685546875,1.90869140625,0,1,5,1.9090761590775909,5.0990195135927845
-0.2814734765918252,-0.7425905271924085,0.02587890625,-0.009765625,1.9443359375,0,1,3,1.944532674725303,3.1622776601683795
0.014471493526594709,-0.4758378202539705,0.0166015625,0.00048828125,1.93896484375,0,1,5,1.939035975838118,5.0990195135927845
-0.14062048999838908,-0.3522611721936804,0.01220703125,-0.0048828125,1.9462890625,0,0,6,1.9463334679023987,6.0
-0.2547062859012841,-0.888935750619939,0.03076171875,-0.0087890625,1.9326171875,0,1,5,1.932881973732616,5.0990195135927845
-0.07094880247678344,-0.6232924723816293,0.021484375,-0.00244140625,1.92041015625,0,1,5,1.9205318812927235,5.0990195135927845
-0.05672731939807638,-0.5712282591711543,0.01953125,-0.001953125,1.919921875,0,0,7,1.9200222109463587,7.0
0.8900065914446409,-0.6298768449270421,0.02197265625,0.03076171875,1.94140625,0,1,6,1.9417742681635777,6.082762530298219
-0.26549351371268626,-0.6224656752251013,0.021484375,-0.00927734375,1.92333984375,1,1,3,1.9234822073605127,3.3166247903554
-0.11355851997954429,-0.7652813184823292,0.0263671875,-0.00390625,1.92236328125,0,1,5,1.9225480676602054,5.0990195135927845
0.7527686615385986,-0.6058969763916036,0.02099609375,0.02587890625,1.94384765625,1,0,5,1.9441332938998996,5.0990195135927845
-0.14138429452284493,-0.5814246326856669,0.02001953125,-0.0048828125,1.93359375,0,0,5,1.93370354851214,5.0
0.028854210072788253,-0.7181825865134529,0.02490234375,0.0009765625,1.93359375,0,1,5,1.9337543459389102,5.0990195135927845
-0.02789044342107691,-0.7769024581357681,0.02685546875,-0.0009765625,1.9287109375,0,1,5,1.9288981440989121,5.0990195135927845
-0.8966866799325006,-0.4466600466455868,0.015625,-0.03125,1.9453125,1,1,3,1.9456262297217444,3.3166247903554
-0.905284257395423,-0.6570310490230201,0.0224609375,-0.03076171875,1.90673828125,0,1,5,1.907118677544226,5.0990195135927845
0.05719628120175945,-0.802203475818912,0.02783203125,0.001953125,1.93603515625,0,1,3,1.9362361846884095,3.1622776601683795
0.6808926289737437,-0.6270810324962227,0.021484375,0.02294921875,1.9072265625,1,1,5,1.907485623986703,5.196152422706632
-0.2269031496422873,-0.5919632794500247,0.0205078125,-0.0078125,1.9296875,0,1,6,1.9298122844427215,6.082762530298219
0.0004296875,-0.6167640826828775,0.021484375,0.0,1.9404296875,0,1,5,1.9405486210091434,5.0990195135927845
0.014647312797364344,-0.7760761246534511,0.02685546875,0.00048828125,1.94287109375,0,0,6,1.94305675201464,6.0
-0.30871862625134694,-0.7733747057915509,0.02685546875,-0.0107421875,1.9501953125,0,0,5,1.9504097948100652,5.0
-0.2557161805258804,-0.5835608884210135,0.02001953125,-0.0087890625,1.9267578125,0,0,5,1.926881858672421,5.0
0.8049084344401103,-0.6627540629521018,0.02294921875,0.02783203125,1.9423828125,0,0,7,1.9427177558513606,7.0
-0.156830341483151,-0.7582603515888844,0.02587890625,-0.00537109375,1.91650390625,0,0,5,1.916686147784315,5.0
-0.02788958824338409,-0.4085285927067194,0.01416015625,-0.0009765625,1.9462890625,0,0,5,1.9463408176643857,5.0
-0.1132151659197846,-0.6821979321146623,0.0234375,-0.00390625,1.92919921875,0,0,5,1.9293455369168382,5.0
-0.12314130424036811,-0.6376051320989623,0.02197265625,-0.00439453125,1.92041015625,1,1,5,1.9205408815632479,5.196152422706632
0.04350317456289015,-0.5748146823258727,0.01953125,0.00146484375,1.90771484375,0,0,5,1.9078153842963583,5.0
0.8269216677087504,-0.6948839781654407,0.0244140625,0.02880859375,1.95703125,0,1,5,1.9573955387192874,5.0990195135927845
-0.1274900679969714,-0.4545015891842307,0.015625,-0.00439453125,1.9306640625,0,0,5,1.9307322897695867,5.0
0.04298853511596703,-0.5911791477146249,0.0205078125,0.00146484375,1.931640625,0,1,6,1.9317500408415003,6.082762530298219
0.014568156967504478,-0.5808790098812304,0.02001953125,0.00048828125,1.93505859375,0,0,3,1.935162210590052,3.0
-0.8462310089444911,-0.5177389536249,0.01806640625,-0.029296875,1.94287109375,0,1,5,1.9431759541659825,5.0990195135927845
-0.24322651518824068,-0.5684909745757344,0.01953125,-0.00830078125,1.9130859375,0,1,3,1.9132036423120715,3.1622776601683795
-0.27575161243545765,-0.6136840903615439,0.021484375,-0.009765625,1.95068359375,1,1,5,1.95082634509743,5.196152422706632
0.07062708126796241,-0.5618520538780966,0.01953125,0.00244140625,1.95166015625,0,0,5,1.9517594102974922,5.0
-0.8529003881389361,-0.49339790805949074,0.01708984375,-0.029296875,1.927734375,0,1,5,1.9280327253967464,5.0990195135927845
-0.8618546928121993,-0.6638659383453649,0.02294921875,-0.02978515625,1.92822265625,1,1,6,1.9285892341942277,6.164414002968976
-0.1414247673557261,-0.5247132846278363,0.01806640625,-0.0048828125,1.93359375,0,0,7,1.9336843141867193,7.0
0.05687103551425993,-0.4896980895307163,0.01708984375,0.001953125,1.93994140625,0,1,5,1.9400176641308946,5.0990195135927845
0.019373152496268153,-0.5584007774712267,0.01953125,0.00048828125,1.94677734375,1,1,3,1.9468753771835132,3.3166247903554
-0.15609304579846037,-0.7212399595726414,0.02490234375,-0.00537109375,1.92578125,0,1,5,1.9259497392777094,5.0990195135927845
-0.15606363260712428,-0.706825158074256,0.0244140625,-0.00537109375,1.92626953125,0,1,5,1.9264317278631806,5.0990195135927845
0.8614384841794607,-0.4229058978032925,0.0146484375,0.02978515625,1.94189453125,0,0,5,1.9421781851191424,5.0
0.1276451528014117,-0.41952306964292074,0.0146484375,0.00439453125,1.9375,0,1,5,1.9375603574149887,5.0990195135927845
-0.1642093015563924,-0.5602256194381895,0.01953125,-0.005859375,1.94091796875,1,1,5,1.9410250805743288,5.196152422706632
-0.13671579717162946,-0.8105078217230847,0.02783203125,-0.0048828125,1.92822265625,1,0,5,1.928429691717387,5.0990195135927845
-0.0711871563313947,-0.5965775909287047,0.0205078125,-0.00244140625,1.91455078125,0,1,5,1.9146621698939472,5.0990195135927845
-0.9051942872412545,-0.7506574181692901,0.02587890625,-0.03125,1.93701171875,0,0,5,1.9374366257670277,5.0
-0.16592908356251077,-0.7520200157880017,0.02587890625,-0.005859375,1.919921875,1,1,7,1.9201052200771713,7.14142842854285
0.00044921875,-0.6483061766892213,0.0224609375,0.0,1.9306640625,0,1,5,1.930794710978457,5.0990195135927845
-0.0700871214840461,-0.5213747083822793,0.01806640625,-0.00244140625,1.94580078125,0,0,5,1.9458861826459373,5.0
-0.15555978328090472,-0.6952039758381688,0.02392578125,-0.00537109375,1.9326171875,0,0,5,1.9327727453264918,5.0
-0.862334965330433,-0.863526371580433,0.02978515625,-0.02978515625,1.9267578125,1,1,5,1.927218197064219,5.196152422706632
0.8895666899538839,-0.6436689827322151,0.0224609375,0.03076171875,1.9423828125,0,1,6,1.9427562295226963,6.082762530298219
0.11309774708973298,-0.5445251047728006,0.01904296875,0.00390625,1.94580078125,0,1,6,1.9458978836930232,6.082762530298219
-0.08516571316514367,-0.5561201891828169,0.01904296875,-0.0029296875,1.9228515625,0,0,5,1.922948087998309,5.0
0.0005859375,-0.8419417278356102,0.029296875,0.0,1.9423828125,0,1,5,1.9426037416776938,5.0990195135927845
-0.12271185810983579,-0.7403556784494318,0.025390625,-0.00439453125,1.92578125,1,0,6,1.9259536387448064,6.082762530298219
-0.07017935588585335,-0.8207286709535488,0.0283203125,-0.00244140625,1.9375,0,0,5,1.9377085050555398,5.0
0.06274913857666635,-0.5981817441733454,0.0205078125,0.001953125,1.9091796875,1,1,5,1.9092908275675025,5.196152422706632
-0.3539928070240644,-0.6666247256053193,0.02294921875,-0.01220703125,1.93359375,0,0,5,1.9337684629479912,5.0
-0.03720460087274848,-0.6095593690966818,0.02099609375,-0.00146484375,1.93408203125,1,0,5,1.9341965477489864,5.0990195135927845
-0.1651671170517825,-0.6631258087461754,0.02294921875,-0.005859375,1.92919921875,1,1,5,1.929344610105265,5.196152422706632
0.1331150153941524,-0.6480514506886417,0.0224609375,0.00439453125,1.93115234375,1,1,5,1.9312879589510736,5.196152422706632
-0.027922608414575983,-0.6093958686472017,0.02099609375,-0.0009765625,1.9345703125,0,0,6,1.9346844920124373,6.0
-0.04272540131931515,-0.6135580382377482,0.02099609375,-0.00146484375,1.90625,0,1,5,1.906366188385634,5.0990195135927845
-0.11093909899804932,-0.6916166509554501,0.0244140625,-0.00390625,1.96826171875,0,1,6,1.9684170032626522,6.082762530298219
-0.0987187554536767,-0.6183996164419191,0.021484375,-0.00341796875,1.935546875,0,1,5,1.935669126220125,5.0990195135927845
-0.16928514691248472,-0.7310066145295155,0.025390625,-0.005859375,1.9375,0,1,5,1.937675222041424,5.0990195135927845
0.1281099190862111,-0.7322892761873002,0.025390625,0.00439453125,1.93359375,0,1,6,1.9337654422865924,6.082762530298219
-0.11297704314568939,-0.6522933536542369,0.0224609375,-0.00390625,1.93359375,0,0,5,1.9337281459764462,5.0
-0.18105794383026422,-0.60041028297408,0.02099609375,-0.00634765625,1.9638671875,0,0,5,1.9639896789015432,5.0
-0.7380155644182609,-0.5067773827891229,0.017578125,-0.025390625,1.9306640625,0,1,5,1.9309110276098715,5.0990195135927845
-0.0649687370054,-0.6045428134492155,0.02099609375,-0.00244140625,1.9501953125,1,0,5,1.950309860846273,5.0990195135927845
-0.02787977531099493,-0.8346012110674815,0.02880859375,-0.0009765625,1.9267578125,0,1,5,1.9269734188042018,5.0990195135927845
0.14140182154014655,-0.5731178168475562,0.02001953125,0.0048828125,1.9443359375,0,1,5,1.944445129424686,5.0990195135927845
0.057368362944780225,-0.6778730047220951,0.0234375,0.001953125,1.92724609375,0,1,5,1.9273895913847179,5.0990195135927845
-0.07040440295033316,-0.6755475667215136,0.0234375,-0.00244140625,1.93408203125,0,1,5,1.9342255764193723,5.0990195135927845
-0.8640305101101069,-0.8280361236320136,0.02880859375,-0.0302734375,1.95458984375,1,0,5,1.9550365401655716,5.0990195135927845
-0.1826039629196264,-0.727693530115778,0.025390625,-0.00634765625,1.9462890625,0,1,5,1.946465024444284,5.0990195135927845
0.02895686890109129,-0.5664151808549049,0.01953125,0.0009765625,1.91943359375,0,1,6,1.9195332099802074,6.082762530298219
0.084391582520905,-0.5411195111861239,0.01904296875,0.0029296875,1.9580078125,0,1,5,1.958102604956823,5.0990195135927845
-0.0984729090845203,-0.7873525014673514,0.02734375,-0.00341796875,1.93798828125,0,1,6,1.938184186664613,6.082762530298219
-0.06937730175138342,-0.4320692037085495,0.01513671875,-0.00244140625,1.96728515625,0,0,5,1.9673449028374717,5.0
-0.8918807153270142,-0.5622224884920923,0.01953125,-0.03076171875,1.935546875,0,1,5,1.9358898363257353,5.0990195135927845
0.1421912035957038,-0.8072463143571627,0.02783203125,0.0048828125,1.935546875,0,0,5,1.9357531271171118,5.0
-0.027815304455788295,-0.5306691945294848,0.0185546875,-0.0009765625,1.9453125,0,1,5,1.9454012318179479,5.0990195135927845
-0.12683551868892898,-0.6883590898765278,0.02392578125,-0.00439453125,1.93798828125,0,1,5,1.9381409477062443,5.0990195135927845
-0.055897118102050405,-0.5580258270875872,0.01953125,-0.001953125,1.9482421875,0,1,5,1.9483410650034079,5.0990195135927845
-0.1561224682739655,-0.735661976828159,0.025390625,-0.00537109375,1.92529296875,0,1,5,1.9254678776869145,5.0990195135927845
-0.15537477062942576,-0.618437251212465,0.021484375,-0.00537109375,1.935546875,0,1,5,1.9356735603762008,5.0990195135927845
-0.11317082651310706,-0.582140640525156,0.02001953125,-0.00390625,1.93115234375,0,0,5,1.9312600589230986,5.0
-0.1484397073394986,-0.5822623170989352,0.0205078125,-0.00537109375,1.96142578125,1,1,6,1.961540342275371,6.164414002968976
-0.13901692762270598,-0.482958825630813,0.01708984375,-0.0048828125,1.96728515625,0,1,6,1.967365444094944,6.082762530298219
-0.3411302424628892,-0.6357874913608759,0.02197265625,-0.01171875,1.92626953125,0,1,5,1.9264304902451939,5.0990195135927845
-0.06996072987076743,-0.7755495104513583,0.02685546875,-0.00244140625,1.9443359375,0,0,5,1.9445229272292635,5.0
-0.25511045489131823,-0.5204180679431253,0.01806640625,-0.0087890625,1.931640625,0,1,5,1.931745103994005,5.0990195135927845
0.8380891620772226,-0.4741311457787845,0.0166015625,0.029296875,1.96337890625,0,0,5,1.9636676521931233,5.0
0.8693120408598065,-0.6911976289894561,0.0244140625,0.0302734375,1.96728515625,1,1,6,1.9676695386846357,6.164414002968976
-0.18368722299035142,-0.7036117981723248,0.0244140625,-0.00634765625,1.93505859375,0,1,7,1.9352230105167079,7.0710678118654755
-0.11318088616304021,-0.567944973916971,0.01953125,-0.00390625,1.93115234375,0,0,5,1.9312550590967374,5.0
-0.0420130816243063,-0.694076325551905,0.02392578125,-0.00146484375,1.935546875,0,0,5,1.9356952999110941,5.0
-0.2638797123660675,-0.4910402383676068,0.01708984375,-0.00927734375,1.935546875,1,1,5,1.9356445534210873,5.196152422706632
-0.04241337316750933,-0.6957149230812512,0.02392578125,-0.00146484375,1.91748046875,0,1,5,1.9176302920045236,5.0990195135927845
-0.26523889025842173,-0.7366249917810824,0.02587890625,-0.00927734375,1.9599609375,0,1,5,1.9601537346396152,5.0990195135927845
0.1996440273134105,-0.7253423023354971,0.02490234375,0.0068359375,1.92724609375,0,0,5,1.927419093669143,5.0
-0.09330731911062817,-0.9179281201964091,0.03173828125,-0.00341796875,1.94140625,1,0,5,1.9416686711553397,5.0990195135927845
-0.03696960623709006,-0.8012556026680775,0.02783203125,-0.00146484375,1.9384765625,1,1,5,1.9386769073500951,5.196152422706632
-0.05594497921789626,-0.6721201005023983,0.0234375,-0.001953125,1.94384765625,0,1,5,1.9439899284235331,5.0990195135927845
-0.08596383625981209,-0.38318531625740543,0.01318359375,-0.0029296875,1.90771484375,0,1,5,1.9077626464728519,5.0990195135927845
-0.18057398985716402,-0.7663886741320257,0.02685546875,-0.00634765625,1.9677734375,0,0,5,1.9679669230635501,5.0
0.8132526749306024,-0.6465277768635537,0.0224609375,0.02783203125,1.93408203125,1,1,5,1.9344126807072493,5.196152422706632
0.07100092090479317,-0.798143136984865,0.02783203125,0.00244140625,1.94580078125,0,1,5,1.9460013521940547,5.0990195135927845
-0.1839194297584876,-0.5814526507272884,0.02001953125,-0.00634765625,1.93359375,0,0,5,1.9337078022313507,5.0
0.11341909938076736,-0.6495127403841717,0.0224609375,0.00390625,1.94140625,0,0,5,1.9415401051849286,5.0
-0.19185368598387242,-0.5775255036125726,0.02001953125,-0.0068359375,1.94677734375,1,0,5,1.9468922768893198,5.0990195135927845
0.04806988979723743,-0.4947383334417533,0.01708984375,0.00146484375,1.92041015625,1,1,5,1.9204867551625449,5.196152422706632
-0.3527874047579258,-0.6028685892287131,0.02099609375,-0.01220703125,1.9404296875,0,1,3,1.940581670452456,3.1622776601683795
0.8039973040921369,-0.8592282823006678,0.02978515625,0.02783203125,1.94482421875,0,0,5,1.9452514026040144,5.0
-0.04227424688646364,-0.5640039325480063,0.01953125,-0.00146484375,1.927734375,0,1,5,1.927833871486445,5.0990195135927845
0.0425572020518113,-0.5015451979287047,0.017578125,0.00146484375,1.94873046875,0,1,3,1.948810297612449,3.1622776601683795
0.1554022866667024,-0.6570375508539075,0.02294921875,0.00537109375,1.9462890625,0,1,3,1.9464317686722121,3.1622776601683795
-0.9023001813719248,-0.6776889358080619,0.0234375,-0.03125,1.943359375,0,0,5,1.943751923293361,5.0
-0.08476998755784437,-0.834426754929839,0.02880859375,-0.0029296875,1.92724609375,0,1,6,1.927463624563985,6.082762530298219
-0.05149579828514335,-0.3349221183543335,0.01171875,-0.001953125,1.9365234375,1,1,4,1.9365598797314905,4.242640687119285
-0.19458799633120172,-0.8506107863883113,0.02978515625,-0.0068359375,1.96630859375,0,0,5,1.9665460511845236,5.0
-0.11419480960398977,-0.568114842254103,0.01953125,-0.00390625,1.9140625,0,1,5,1.9141661323986157,5.0990195135927845
-0.02780476122579335,-0.6593330155314849,0.02294921875,-0.0009765625,1.93994140625,0,1,5,1.940077390208643,5.0990195135927845
-0.11230393438542814,-0.6342727375326295,0.02197265625,-0.00390625,1.9453125,0,0,5,1.9454405102875783,5.0
0.07610988774044532,-0.7163315943343284,0.02490234375,0.00244140625,1.9384765625,1,1,7,1.9386380452654222,7.14142842854285
-0.21351838412419616,-0.5799669555899852,0.02001953125,-0.00732421875,1.92236328125,0,1,5,1.9224814721890129,5.0990195135927845
-0.8629820220278956,-0.719914283219246,0.025390625,-0.0302734375,1.96826171875,0,1,5,1.9686582634760816,5.0990195135927845
-0.09880865644840044,-0.7093506931562701,0.0244140625,-0.00341796875,1.9326171875,0,0,5,1.932774410628033,5.0
0.04731686553167847,-0.5603298259667124,0.01953125,0.00146484375,1.95703125,1,0,4,1.95712925709324,4.123105625617661
-0.26884730898840614,-0.6756770007506343,0.0234375,-0.00927734375,1.93408203125,0,1,5,1.934246284503975,5.0990195135927845
-0.2408980078262504,-0.46842112183228124,0.01611328125,-0.00830078125,1.93212890625,0,0,5,1.932213924794256,5.0
-0.7635523244497346,-0.6889108089138241,0.02392578125,-0.0263671875,1.9375,0,1,3,1.9378271134404852,3.1622776601683795
0.09931554869894053,-0.5652261758119773,0.01953125,0.00341796875,1.93994140625,0,0,6,1.9400427345602895,6.0
-0.12564711540990536,-1.6436893161797799,0.05712890625,-0.00439453125,1.9453125,0,1,5,1.9461561464822084,5.0990195135927845
0.04288436766815747,-0.5476251763132146,0.01904296875,0.00146484375,1.93505859375,0,1,5,1.9351528471084016,5.0990195135927845
0.042688588757771415,-0.7539961490135887,0.0263671875,0.00146484375,1.95068359375,0,1,5,1.9508623368319167,5.0990195135927845
-0.01402067523356802,-0.5272518499249422,0.01806640625,-0.00048828125,1.90625,0,1,5,1.9063356724232408,5.0990195135927845
-0.11435282914312689,-0.4731181576391391,0.01611328125,-0.00390625,1.91259765625,0,0,6,1.912669519628181,6.0
-0.2973873143931113,-0.5248150030203894,0.01806640625,-0.01025390625,1.93359375,0,0,6,1.9337053363083105,6.0
-0.1122085117151941,-0.44526669058605955,0.015625,-0.00390625,1.94921875,0,1,3,1.9492852881929892,3.1622776601683795
-0.0840720934907106,-0.5441113252914127,0.01904296875,-0.0029296875,1.94775390625,0,1,5,1.947849197715212,5.0990195135927845
0.14232367943906202,-0.7373652693866547,0.025390625,0.0048828125,1.93310546875,0,0,5,1.9332783759735581,5.0
0.0053199218749999996,-0.6008076001859513,0.02099609375,0.0,1.9462890625,1,1,7,1.9464023095855305,7.14142842854285
0.000615234375,-0.8856198467483034,0.03076171875,0.0,1.939453125,0,1,5,1.939697065887537,5.0990195135927845
-0.6967180503328714,-0.5393199608286522,0.01904296875,-0.0244140625,1.96630859375,0,1,5,1.966552355509934,5.0990195135927845
0.879077332470805,-0.8304843501035568,0.02880859375,0.0302734375,1.9345703125,0,1,5,1.9350216303954504,5.0990195135927845
0.21388944466019608,-0.33680291397435025,0.01171875,0.00732421875,1.9248046875,0,1,7,1.9248542953438925,7.0710678118654755
-0.051421292089646686,-0.8344077623230911,0.02880859375,-0.001953125,1.92724609375,1,1,7,1.927462387608576,7.14142842854285
0.09048895710675546,-0.9435231895922302,0.03271484375,0.0029296875,1.9365234375,1,1,5,1.9368019692413705,5.196152422706632
0.04304698761370802,-0.5356403236970232,0.0185546875,0.00146484375,1.92724609375,0,1,5,1.927335966579275,5.0990195135927845
-0.8443961301590442,-0.4413797067160051,0.015625,-0.02978515625,1.96826171875,1,1,5,1.9685490823585123,5.196152422706632
-0.1690666753638195,-0.5600835255849212,0.01953125,-0.005859375,1.94140625,0,1,5,1.941513334886221,5.0990195135927845
0.09959440235037945,-0.717038894881737,0.02490234375,0.00341796875,1.9365234375,0,1,5,1.9366865603967607,5.0990195135927845
-0.1553902343351165,-0.760643710259354,0.0263671875,-0.00537109375,1.93408203125,0,1,7,1.9342692110533264,7.0710678118654755
-0.12714555385478443,-0.4390805342371829,0.01513671875,-0.00439453125,1.93603515625,0,0,5,1.9360993152200086,5.0
-0.08412288945252368,-0.7477378691805502,0.02587890625,-0.0029296875,1.943359375,0,0,5,1.9435338847722554,5.0
0.11341832126563947,-0.3112328221759035,0.0107421875,0.00390625,1.9375,0,0,3,1.937533716708266,3.0
-0.09842998970800045,-0.5315249779961615,0.0185546875,-0.00341796875,1.9423828125,0,1,5,1.942474439789108,5.0990195135927845
0.08895105022851427,-0.6498605229099441,0.02294921875,0.0029296875,1.9677734375,1,1,6,1.9679094366968846,6.164414002968976
-0.8866199271986744,-0.7227145532257763,0.02490234375,-0.03076171875,1.93603515625,1,0,6,1.9364396547015503,6.082762530298219
-0.27682475935264095,-0.7856786609065717,0.02734375,-0.009765625,1.9423828125,1,1,4,1.9425998142672394,4.242640687119285
0.03347730642774126,-0.44732224196677245,0.015625,0.0009765625,1.93994140625,1,1,7,1.9400045757633007,7.14142842854285
-0.07080763115520938,-0.5647444937112355,0.01953125,-0.00244140625,1.92529296875,0,1,5,1.9253935820266017,5.0990195135927845
-0.069401686243968,-0.6426910182710475,0.0224609375,-0.00244140625,1.96240234375,0,0,5,1.962532397932159,5.0
0.794618248344741,-0.7177656236804737,0.02490234375,0.02734375,1.93310546875,0,1,5,1.9334592213696835,5.0990195135927845
-0.9050294579699971,-0.6797357771483604,0.0234375,-0.03125,1.9375,0,0,5,1.9378937351945411,5.0
-0.14122622115123556,-0.746461408808822,0.02587890625,-0.0048828125,1.93408203125,0,1,5,1.9342613223788383,5.0990195135927845
-0.2358840624319095,-0.6195949007437388,0.021484375,-0.00830078125,1.93212890625,1,1,5,1.932266180345069,5.196152422706632
-0.07029509301832187,-0.7030011322341984,0.0244140625,-0.00244140625,1.9365234375,0,1,5,1.9366788662292589,5.0990195135927845
-0.14086457414072798,-0.607632201963711,0.02099609375,-0.0048828125,1.9404296875,0,0,6,1.940549419608276,6.0
0.05737299689921417,-0.7955531289226767,0.02734375,0.001953125,1.9296875,0,0,3,1.92988220962254,3.0
-0.008871916258678987,-0.47954980528445806,0.0166015625,-0.00048828125,1.94384765625,1,0,5,1.9439186096657026,5.0990195135927845
0.04303340047933892,-0.7041748043104108,0.0244140625,0.00146484375,1.93310546875,0,1,3,1.933260185677583,3.1622776601683795
0.17029380014697362,-0.5944857719691844,0.0205078125,0.005859375,1.9365234375,0,0,5,1.9366408873706407,5.0
0.21207063711314958,-0.587612462816246,0.0205078125,0.00732421875,1.94287109375,0,1,7,1.9429931295511969,7.0710678118654755
0.04307870252170681,-0.6768466302871751,0.0234375,0.00146484375,1.93017578125,0,1,6,1.9303186288013463,6.082762530298219
0.005476171875,-0.8275298807441682,0.02880859375,0.0,1.95458984375,1,0,5,1.9548021363719914,5.0990195135927845
-0.18385238371153845,-0.6047539176562539,0.02099609375,-0.00634765625,1.93408203125,0,1,5,1.9342064089172988,5.0990195135927845
-0.02754497697320759,-0.5113934285931457,0.01806640625,-0.0009765625,1.96484375,0,1,7,1.9649270496950184,7.0710678118654755
-0.19794207218431223,-0.7892173131236836,0.02734375,-0.0068359375,1.93359375,0,1,5,1.9337991624635245,5.0990195135927845
0.09820409315116874,-0.7673385880836823,0.02685546875,0.00341796875,1.96484375,0,0,5,1.9650302442014018,5.0
0.028728302901308775,-0.5387756881037468,0.0185546875,0.0009765625,1.93359375,0,0,5,1.93368301956179,5.0
-0.051276938962359096,-0.6891859365998527,0.02392578125,-0.001953125,1.935546875,1,1,5,1.935695731004218,5.196152422706632
0.014605507875846562,-0.6099824242745151,0.02099609375,0.00048828125,1.9326171875,0,0,5,1.9327312973591926,5.0
-0.07036232073916991,-0.7607807262825711,0.0263671875,-0.00244140625,1.93359375,0,1,6,1.9337750590697462,6.082762530298219
0.042257228228183265,-0.6085534492405711,0.021484375,0.00146484375,1.96630859375,0,1,5,1.9664265076507321,5.0990195135927845
-0.08305472882781036,-0.8456368562663896,0.02978515625,-0.0029296875,1.96630859375,0,1,5,1.9665363521828898,5.0990195135927845
0.21796151895116067,-0.8024979640764771,0.02783203125,0.00732421875,1.93505859375,1,1,3,1.9352725976950964,3.3166247903554
-0.08503153901556801,-0.30773015817103117,0.0107421875,-0.0029296875,1.9296875,0,1,5,1.9297196234990674,5.0990195135927845
-0.3110936353091749,-0.8311831790073251,0.02880859375,-0.0107421875,1.93505859375,0,1,5,1.9353028421701512,5.0990195135927845
0.04312998516118121,-0.45179553690631996,0.015625,0.00146484375,1.9208984375,0,1,5,1.9209625435135775,5.0990195135927845
-0.19856015269462635,-0.5685760323870827,0.01953125,-0.0068359375,1.92919921875,0,0,5,1.9293101941869475,5.0
-0.20999562422971163,-0.5693517452414097,0.01953125,-0.00732421875,1.91015625,1,1,5,1.9102701414514447,5.196152422706632
-0.022431248684037196,-0.8090794865978846,0.0283203125,-0.0009765625,1.96533203125,1,0,7,1.9655363102297716,7.0710678118654755
-0.2395438411162214,-0.4891530775321242,0.01708984375,-0.00830078125,1.94287109375,0,1,5,1.9429639864542216,5.0990195135927845
-0.19824093515373273,-0.8665289250084866,0.02978515625,-0.0068359375,1.93017578125,0,0,5,1.930417683326173,5.0
-0.04196472617135279,-0.5883886322647714,0.0205078125,-0.00146484375,1.94091796875,0,1,5,1.9410268616269515,5.0990195135927845
0.09916459058163245,-0.44693155681527297,0.015625,0.00341796875,1.94140625,0,1,5,1.9414721349209312,5.0990195135927845
-0.1000834100604369,-0.6751546252185624,0.02294921875,-0.00341796875,1.90869140625,0,0,5,1.908832426758361,5.0
-0.008974424197425182,-0.46360596063061366,0.01611328125,-0.00048828125,1.93115234375,1,1,6,1.931219627857572,6.164414002968976
-0.008962447305153736,-0.5555077816238093,0.01904296875,-0.00048828125,1.9248046875,1,0,5,1.9248989475033138,5.0990195135927845
-0.05603853023135789,-0.5594400189060559,0.01953125,-0.001953125,1.943359375,0,1,5,1.9434585009266905,5.0990195135927845
-0.03772187311102406,-0.7040206875475364,0.02392578125,-0.00146484375,1.908203125,1,0,5,1.908353676611178,5.0990195135927845
0.7854769619033605,-0.6093962195533242,0.02099609375,0.02685546875,1.9326171875,1,0,5,1.9329178062129158,5.0990195135927845
-0.08370882623205812,-0.7017191543502831,0.0244140625,-0.0029296875,1.95361328125,0,0,5,1.953768021591354,5.0
-0.11206365783827453,-0.7269129033911969,0.025390625,-0.00390625,1.9482421875,0,1,7,1.9484115488730143,7.0710678118654755
0.08569810713152144,-0.691018957433347,0.02392578125,0.0029296875,1.93017578125,0,1,5,1.9303262865643513,5.0990195135927845
-0.13684046358437413,-0.38351139284596436,0.01318359375,-0.0048828125,1.9306640625,1,0,4,1.930715248614119,4.123105625617661
-0.06982223947192356,-0.41584390410220196,0.0146484375,-0.00244140625,1.955078125,0,1,3,1.9551345253048917,3.1622776601683795
-0.0841967722324952,-0.7341856314940132,0.025390625,-0.0029296875,1.94189453125,0,0,5,1.942062727464125,5.0
0.18412617130246509,-0.5180026919919135,0.01806640625,0.00634765625,1.939453125,0,1,5,1.9395476565031662,5.0990195135927845
-0.11285723634536739,-0.7747887703477047,0.02685546875,-0.00390625,1.93408203125,0,1,5,1.934272415818147,5.0990195135927845
-0.057035842202500485,-0.3531413186153532,0.01220703125,-0.001953125,1.91455078125,0,1,6,1.9145906926270664,6.082762530298219
-0.08405667877426462,-0.9602734310130062,0.033203125,-0.0029296875,1.94140625,0,0,5,1.9416923695883639,5.0
0.2132672671930572,-0.8788894203053663,0.0302734375,0.00732421875,1.93359375,0,0,5,1.9338445943863811,5.0
-0.09517429993150958,-0.7617155281062605,0.02587890625,-0.00341796875,1.90771484375,1,0,4,1.907893426101982,4.123105625617661
-0.028092716749683597,-0.6226254595300831,0.021484375,-0.0009765625,1.92236328125,0,1,5,1.9224835804608902,5.0990195135927845
0.7323646665091572,-0.6404142674740846,0.02197265625,0.02490234375,1.91015625,0,1,5,1.9104449282198601,5.0990195135927845
-0.11279920776575851,-0.2918155550560857,0.01025390625,-0.00390625,1.94091796875,0,1,5,1.9409489851098798,5.0990195135927845
-0.03738881928973376,-0.6216803382514698,0.021484375,-0.00146484375,1.92529296875,1,1,3,1.925413394482998,3.3166247903554
-0.12688952901552278,-0.7077605197684085,0.0244140625,-0.00439453125,1.93701171875,0,0,5,1.9371705544240265,5.0
-0.09872890596453883,-0.5380477379844241,0.0185546875,-0.00341796875,1.9365234375,0,0,5,1.9366153420143648,5.0
0.028738464871192745,-0.5899860545038006,0.0205078125,0.0009765625,1.935546875,0,1,3,1.9356557621049557,3.1622776601683795
-0.04139684518908226,-0.5804378628884854,0.0205078125,-0.00146484375,1.96728515625,0,1,5,1.9673925897345284,5.0990195135927845
0.1851183702842647,-0.8374402690589142,0.02880859375,0.00634765625,1.93115234375,0,0,5,1.9313776437001746,5.0
-0.11442823395441967,-0.617398968177276,0.02099609375,-0.00390625,1.90966796875,0,0,5,1.9097873823050493,5.0
-0.09392385757288597,-0.6475486270907549,0.0224609375,-0.00341796875,1.93310546875,1,1,6,1.9332389737264537,6.164414002968976
-0.22128884394173573,-0.7036391332333988,0.0244140625,-0.0078125,1.93505859375,1,1,5,1.9352283696891515,5.196152422706632
0.07094907841991563,-0.6485641350755782,0.0224609375,0.00244140625,1.9443359375,0,0,7,1.944467200040119,7.0
-0.07031506521542549,-0.6746898622583288,0.0234375,-0.00244140625,1.9365234375,0,1,5,1.9366668017130733,5.0990195135927845
-0.17983224892984628,-0.4222115671348387,0.0146484375,-0.00634765625,1.92626953125,1,1,5,1.9263356863441934,5.196152422706632
-0.06453898914165669,-0.6100053115894792,0.021484375,-0.00244140625,1.9619140625,1,1,5,1.9620332126314457,5.196152422706632
-0.04222392207475561,-0.6256284535363145,0.021484375,-0.00146484375,1.92822265625,0,0,7,1.92834289902293,7.0
-0.00890583295265608,-0.5678777580363001,0.01953125,-0.00048828125,1.93115234375,1,0,7,1.931251170333952,7.0710678118654755
-0.07019470834791987,-0.6215560384641958,0.021484375,-0.00244140625,1.94091796875,0,0,5,1.9410384077215588,5.0
-0.09704087626136268,-0.6547247834386374,0.02294921875,-0.00341796875,1.96826171875,0,0,5,1.9683984715113745,5.0
-0.2957215341647339,-0.7478747967318439,0.02587890625,-0.01025390625,1.943359375,0,0,5,1.9435587258383706,5.0
0.019537829011688868,-0.7074863355835811,0.0244140625,0.00048828125,1.9375,1,0,5,1.9376538738552695,5.0990195135927845
-0.1973616662933902,-0.418785507176197,0.0146484375,-0.0068359375,1.94189453125,0,1,5,1.941961811483777,5.0990195135927845
0.09952108876724017,-0.5381824343472066,0.0185546875,0.00341796875,1.935546875,0,0,5,1.935638825881746,5.0
-0.1689770837810124,-0.8005287631410893,0.02783203125,-0.005859375,1.9404296875,0,1,3,1.9406381234970727,3.1622776601683795
-0.2555111894342387,-0.5924347772387293,0.0205078125,-0.0087890625,1.92822265625,0,1,5,1.928351739198264,5.0990195135927845
-0.1976045697617968,-0.7076284393413127,0.0244140625,-0.0068359375,1.9375,0,0,5,1.937665870703527,5.0
-0.042091288634731445,-0.37632683351172574,0.01318359375,-0.00146484375,1.94189453125,0,1,5,1.9419398351674118,5.0990195135927845
-0.12666665343940833,-0.7441832701355953,0.02587890625,-0.00439453125,1.93994140625,0,1,5,1.9401189884583963,5.0990195135927845
-0.18345518552980447,-0.7027192802584658,0.0244140625,-0.00634765625,1.9375,0,1,5,1.937664209605891,5.0990195135927845
-0.19841830562276658,-0.6201991515742794,0.021484375,-0.0068359375,1.93017578125,0,1,7,1.930307450883069,7.0710678118654755
-0.8458057936686032,-0.5174767560001312,0.01806640625,-0.029296875,1.94384765625,0,1,5,1.944152363532286,5.0990195135927845
-0.24063909224060914,-0.7329107916389477,0.025390625,-0.00830078125,1.9326171875,0,1,5,1.932801795380908,5.0990195135927845
-0.013763222264964993,-0.44553770426245076,0.015625,-0.00048828125,1.94775390625,0,1,5,1.947816638792192,5.0990195135927845
-0.2392906967555938,-0.587477303754106,0.0205078125,-0.00830078125,1.9443359375,0,1,5,1.9444618050239246,5.0990195135927845
0.042960478382606956,-0.6749549055444923,0.0234375,0.00146484375,1.935546875,0,1,6,1.9356893261822072,6.082762530298219
0.01431035995586273,-0.5247902014402309,0.0185546875,0.00048828125,1.966796875,0,1,5,1.9668844557717586,5.0990195135927845
-0.2531897172013416,-0.6907321406394672,0.02392578125,-0.0087890625,1.9453125,0,0,5,1.9454794815891279,5.0
-0.239458505519499,-0.6917645763170285,0.02392578125,-0.00830078125,1.9423828125,0,0,3,1.9425478980640847,3.0
-0.10818907600571227,-0.44878905467020525,0.015625,-0.00390625,1.93408203125,1,1,6,1.9341490901732958,6.164414002968976
0.028775152463782466,-0.6744506746441316,0.0234375,0.0009765625,1.93701171875,0,1,5,1.937153754521152,5.0990195135927845
-0.21085487435568032,-0.4739414737922981,0.0166015625,-0.00732421875,1.947265625,0,1,5,1.9473501663451234,5.0990195135927845
0.0859561448585139,-0.8254049610835624,0.0283203125,0.0029296875,1.92626953125,0,0,5,1.926479932465179,5.0
0.12037158831173439,-0.6993724248822961,0.02392578125,0.00390625,1.9072265625,1,1,5,1.9073806286378845,5.196152422706632
0.1975695354544424,-0.670752329795846,0.0234375,0.0068359375,1.947265625,0,1,7,1.9474186660177606,7.0710678118654755
0.7907353229243806,-0.5742500932028024,0.01953125,0.02685546875,1.90771484375,0,0,5,1.9080038288725816,5.0
-0.07896954135175407,-0.7689104219510188,0.02685546875,-0.0029296875,1.94873046875,1,1,5,1.9489177096802277,5.196152422706632
-0.08467499670724316,-0.6669568693654592,0.02294921875,-0.0029296875,1.93212890625,0,0,5,1.932267414225294,5.0
-0.22157514827816055,-0.704533898280096,0.0244140625,-0.0078125,1.9326171875,1,1,5,1.932787177892179,5.196152422706632
0.8767171894904442,-0.5691313693612259,0.01953125,0.02978515625,1.908203125,0,1,5,1.9085355096301366,5.0990195135927845
-0.04208995719057589,-0.71914535940956,0.02490234375,-0.00146484375,1.93115234375,0,1,5,1.9313134513233665,5.0990195135927845
-0.7746862850999109,-0.7618386220141259,0.02685546875,-0.02734375,1.9677734375,1,1,6,1.968146640419969,6.164414002968976
-0.1644757009482554,-0.5518340457457174,0.01904296875,-0.005859375,1.93798828125,1,0,3,1.9380906958129005,3.1622776601683795
0.028749799937240708,-0.5342841505533923,0.0185546875,0.0009765625,1.93212890625,0,1,5,1.9322182434883903,5.0990195135927845
0.12792497169802736,-0.6465689089212819,0.0224609375,0.00439453125,1.935546875,0,1,3,1.9356821823172707,3.1622776601683795
-0.18446471615670354,-0.6638118450207668,0.02294921875,-0.00634765625,1.92724609375,0,1,5,1.9273931786887015,5.0990195135927845
0.24163434184885124,-0.6050747065553179,0.02099609375,0.00830078125,1.93212890625,0,1,5,1.9322608129569208,5.0990195135927845
0.00523203125,-0.4833473803613691,0.0166015625,0.0,1.9091796875,1,1,5,1.9092518668420988,5.196152422706632
-0.29432597196932814,-0.6269556958876983,0.02197265625,-0.01025390625,1.953125,0,1,3,1.953275506896317,3.1622776601683795
0.01481837083994791,-0.7116141525238983,0.0244140625,0.00048828125,1.9130859375,0,1,5,1.9132417748749337,5.0990195135927845
0.11377954692760472,-0.7172108592665664,0.02490234375,0.00390625,1.93603515625,0,1,5,1.9361992438148683,5.0990195135927845
-0.1897678699794858,-0.6084114241967145,0.021484375,-0.0068359375,1.96728515625,1,1,5,1.967414342331638,5.196152422706632
-0.11177992832806233,-0.7673815854899894,0.02685546875,-0.00390625,1.95263671875,0,1,7,1.9528252943880082,7.0710678118654755
-0.12699438838272206,-0.6514803787014326,0.0224609375,-0.00439453125,1.93603515625,0,0,5,1.9361704294442283,5.0
-0.22595940785546287,-0.39606593869741186,0.013671875,-0.0078125,1.93896484375,0,0,5,1.9390287828242074,5.0
0.07136791939046706,-0.4498107061912502,0.015625,0.00244140625,1.92919921875,0,1,3,1.9292640375840442,3.1622776601683795
-0.09910510430909535,-0.5400900484721066,0.0185546875,-0.00341796875,1.92919921875,0,0,5,1.9292914721638639,5.0
-0.8739533866098607,-0.8279159032798401,0.02880859375,-0.0302734375,1.943359375,0,1,5,1.9438086522320837,5.0990195135927845
-0.8230317643063237,-0.710490942678657,0.0244140625,-0.0283203125,1.9306640625,0,0,5,1.9310261025622764,5.0
-0.0935650652050917,-0.44672757763175713,0.015625,-0.00341796875,1.94287109375,1,1,3,1.9429369289981333,3.3166247903554
-0.15518871431787643,-0.6084068471089542,0.02099609375,-0.00537109375,1.93798828125,0,0,5,1.9381094558520577,5.0
-0.08476180619659095,-0.4773627484765638,0.0166015625,-0.0029296875,1.93310546875,0,1,5,1.9331789747091308,5.0990195135927845
-0.12699902017378786,-0.5045967725278226,0.017578125,-0.00439453125,1.9375,0,1,5,1.9375847213434108,5.0990195135927845
-0.23910771123425928,-0.676631511658241,0.0234375,-0.00830078125,1.9453125,0,0,3,1.9454713932699859,3.0
0.04287258930085976,-0.5664064470584594,0.01953125,0.00146484375,1.93603515625,0,0,5,1.9361342261655663,5.0
-0.022553532546920843,-0.6510785722331494,0.02294921875,-0.0009765625,1.96435546875,1,1,5,1.9644897627433908,5.196152422706632
-0.06553250732059607,-0.533264290784631,0.0185546875,-0.00244140625,1.93603515625,1,1,5,1.936125606237535,5.196152422706632
0.000439453125,-0.6305718302418143,0.02197265625,0.0,1.94140625,0,1,7,1.9415305882632246,7.0710678118654755
-0.1979838681789066,-0.7374111825146212,0.025390625,-0.0068359375,1.93359375,0,0,6,1.9337725315864989,6.0
0.2014273524084836,-0.5742627220378475,0.01953125,0.0068359375,1.9091796875,0,0,5,1.9092918265500076,5.0
0.014701800264947754,-0.4976970592784355,0.01708984375,0.00048828125,1.9091796875,0,1,5,1.909256237475886,5.0990195135927845
-0.013715035534087766,-0.5303907804537665,0.0185546875,-0.00048828125,1.9462890625,0,1,5,1.9463775660580172,5.0990195135927845
0.04800258219382557,-0.6491036689867093,0.0224609375,0.00146484375,1.92822265625,1,1,5,1.928354026509758,5.196152422706632
-0.183167158288682,-0.7157781723831128,0.02490234375,-0.00634765625,1.9404296875,0,1,6,1.9405998535492728,6.082762530298219
-0.21178354406225008,-0.5942985187684927,0.0205078125,-0.00732421875,1.93798828125,0,0,5,1.9381106245042263,5.0
0.04236554053707496,-0.7255247795335974,0.025390625,0.00146484375,1.96484375,0,0,5,1.9650083438802912,5.0
0.8782050284558868,-0.7265092598577544,0.025390625,0.0302734375,1.947265625,1,1,5,1.9476664445337137,5.196152422706632
-0.6703895782308337,-0.44596409780945656,0.015625,-0.0234375,1.94775390625,1,1,7,1.9479575807351104,7.14142842854285
-0.09799675619126519,-0.7552342374413514,0.0263671875,-0.00341796875,1.94775390625,0,1,6,1.9479353660733125,6.082762530298219
-0.2695529070995529,-0.3693961101759543,0.0126953125,-0.00927734375,1.9306640625,0,0,3,1.9307280912380003,3.0
-0.27858070604088303,-0.7385835942528877,0.025390625,-0.009765625,1.9306640625,1,0,5,1.9308557101706318,5.0990195135927845
