AngleX,AngleY,accelx,accely,accelz,gyrox,gyroy,gyroz,totAcc,totGyr
-28.434507069085072,-59.62072526800935,0.892822265625,-0.50634765625,0.026611328125,103,-84,-16,1.0267559153811594,133.86933928274988
-26.84196443752019,-61.390211712546915,0.93212890625,-0.489990234375,-0.007080078125,64,-73,-22,1.0530929945431908,99.54396013822235
-14.880124008627643,-73.11341960889621,0.844970703125,-0.233154296875,-0.0439453125,41,-57,39,0.8776489080387186,80.31811750782012
-23.61213973766517,-63.82894212609237,0.818359375,-0.373291015625,0.08056640625,61,-28,70,0.9030776239132352,96.97937925146768
-24.06890400419587,-63.82285331041294,0.88916015625,-0.411376953125,0.0537109375,42,-26,68,0.9811837981907681,84.04760555780278
-25.832694185366098,-62.30955504993427,0.845947265625,-0.422607421875,0.028564453125,31,-34,48,0.9460653979638928,66.49060083951716
-22.493454226910764,-65.71549691435968,0.89111328125,-0.381591796875,0.008056640625,42,-47,39,0.9694122388956069,74.1215218408257
-23.52647333784612,-64.81566785144206,0.92724609375,-0.416259765625,-0.0078125,30,-62,31,1.0164243926672873,75.53145040312677
-26.18933349413013,-62.252709024738955,0.939208984375,-0.47265625,0.02880859375,-8,-54,24,1.0518304911289813,59.632206063502295
-26.983874840847275,-61.15904380608017,0.9228515625,-0.481689453125,0.068359375,-11,-39,20,1.0432414580579816,45.18849411078001
-30.091690779967518,-58.174195532138434,0.95166015625,-0.56494140625,0.042236328125,-11,-23,14,1.107519639962644,29.086079144497972
-32.17848831693354,-56.18063610312148,0.920654296875,-0.591552734375,0.014404296875,-27,-9,-14,1.094416034088227,31.71750305430741
-30.844294222068324,-57.43780521506848,0.886962890625,-0.5400390625,-0.015380859375,-32,11,-10,1.0385479908058406,35.2845575287547
-29.401088452637918,-58.779994522587806,0.875244140625,-0.503173828125,0.005126953125,-25,27,-9,1.0095853072706178,37.881393849751625
-29.75884320590895,-58.205227731220475,0.860595703125,-0.504638671875,0.044189453125,-6,27,-5,0.9986179755824866,28.106938645110393
-30.48662424935908,-57.44739094933656,0.8525390625,-0.517822265625,0.0361328125,25,11,-13,0.9981324220786274,30.24896692450835
-29.723158930827346,-58.17881280188381,0.845703125,-0.499267578125,0.036865234375,37,4,-23,0.9827720670160972,43.749285708454714
-29.605167051401924,-58.29973529345288,0.85498046875,-0.503662109375,0.02978515625,52,-5,-35,0.9927508639617904,62.88083968904996
-27.021121218734038,-60.759624329137715,0.86767578125,-0.459716796875,0.05078125,57,-10,-39,0.9832494749799617,69.7853852894716
-25.86007855291321,-61.963373984345864,0.872802734375,-0.439453125,0.044189453125,58,-12,-38,0.9781903546714357,70.37044834303673
-26.48182076479991,-61.390438497576,0.88818359375,-0.459228515625,0.04150390625,55,-14,-31,1.0007414751092385,64.66838485689897
-25.478311227078642,-62.41445963608845,0.8984375,-0.443115234375,0.047119140625,41,-12,-24,1.0028764957634113,49.0
-24.82377875333615,-63.17511811495374,0.88671875,-0.4228515625,0.04736328125,23,-18,-22,0.9835226819555412,36.565010597564445
-24.296387926120822,-63.640675560384636,0.876220703125,-0.406982421875,0.064208984375,9,-23,-24,0.968256270816037,34.438350715445125
-19.972673308881202,-67.47916196631984,0.86376953125,-0.323974609375,0.09228515625,11,-31,-18,0.9271320837397525,37.49666651850535
-25.537362808722325,-62.21613366661123,0.869384765625,-0.431396484375,0.068115234375,49,-30,1,0.9729195663496069,57.463031594234565
-22.00132629920495,-65.27126392901138,0.8935546875,-0.374755859375,0.108642578125,27,-37,-1,0.9750308423177003,45.81484475582123
-28.120787708684265,-59.773823007083685,0.914306640625,-0.503662109375,0.087646484375,5,-39,-9,1.0475275937818271,40.33608806019741
-25.51686554152299,-62.22665976041147,0.93408203125,-0.456298828125,0.107666015625,-34,-28,-8,1.0451362746421813,44.76605857119878
-24.619977525137642,-63.70773214620289,0.930908203125,-0.43310546875,0.0517578125,-45,-21,-5,1.0280317606287068,49.90991885387112
-25.457111188705518,-62.91908150772113,0.91357421875,-0.44189453125,0.02392578125,-38,-8,4,1.0151162854184503,39.03844259188627
-20.488521140500318,-67.72681062515005,0.919189453125,-0.3486328125,0.037109375,-34,4,8,0.9837841198153116,35.156791662493895
-23.889602174631026,-64.22119620371306,0.89306640625,-0.405029296875,0.003662109375,0,16,14,0.9806272219066843,21.2602916254693
-27.642377980432613,-60.410329581299536,0.883544921875,-0.475341796875,-0.00537109375,11,17,21,1.0033096737675387,29.171904291629644
-29.963722818589492,-58.18008471791374,0.863037109375,-0.51025390625,-0.00146484375,0,10,15,1.0025937595900702,18.027756377319946
-30.472700175586596,-57.79445733789181,0.867919921875,-0.522216796875,0.01220703125,-16,-1,10,1.0129878505381147,18.894443627691185
-30.053132749452942,-58.219992097987785,0.85693359375,-0.506103515625,0.046630859375,-31,-14,1,0.9963184178119592,34.02939905434711
-28.79906776832119,-59.58851349351002,0.8681640625,-0.4873046875,0.01953125,-21,-24,-15,0.9957691336863878,35.24202037341219
-26.448638274438505,-61.87657967826155,0.889892578125,-0.453369140625,0.0068359375,-2,-26,-13,0.9987487713707157,29.13760456866693
-25.429994801559076,-62.70063605950994,0.921630859375,-0.450439453125,0.02587890625,14,-11,-9,1.0261427092137556,19.949937343260004
-27.008548203348028,-61.04858834143079,0.92529296875,-0.4853515625,-0.027099609375,18,0,-10,1.0452117517841337,20.591260281974
-26.864704603234447,-61.20579677696246,0.88525390625,-0.460693359375,-0.010986328125,12,11,-21,0.9980148041531132,26.570660511172846
-26.269904158275992,-61.57182458915085,0.883056640625,-0.448974609375,0.0458984375,19,22,-33,0.9917025244398068,43.977266854592045
-26.46087512920395,-61.448156574458174,0.888671875,-0.455810546875,0.01806640625,26,27,-29,0.9989130848543792,47.391982444291145
-28.542717855258317,-58.9873909292342,0.882568359375,-0.49853515625,0.07470703125,46,17,-29,1.0163883861523013,56.97367813297646
-26.66302166511672,-60.840694627236665,0.876220703125,-0.457275390625,0.08837890625,43,-13,-25,0.9923075806049564,51.41011573610781
-25.799645977125483,-62.32005728723348,0.877685546875,-0.438720703125,0.017578125,42,-32,-37,0.9813851257392675,64.47480127925948
-23.693096420847397,-64.40450893129082,0.893310546875,-0.405517578125,0.007568359375,44,-26,-38,0.9810736564550626,63.686733312362634
-22.621614665009606,-65.42687454451719,0.900146484375,-0.387451171875,0.023193359375,36,-16,-30,0.9802652885005573,49.51767361255979
-22.985511556520134,-64.92442489366272,0.9248046875,-0.405517578125,0.043701171875,36,-8,-20,1.0107512100480447,41.95235392680606
-23.703160299278867,-64.25234707643607,0.91845703125,-0.41650390625,0.037353515625,34,-7,-19,1.0091749636726128,39.57271787481876
-24.191097808139197,-63.553514722612334,0.912353515625,-0.424072265625,0.0654296875,34,-6,-18,1.0082198510007454,38.93584466786357
-24.97557874248896,-62.75749344681003,0.891357421875,-0.429443359375,0.068359375,31,-7,-22,0.9917724822726848,38.65229618017538
-24.661346569405335,-63.02182548548916,0.881103515625,-0.4189453125,0.07373046875,34,-14,-23,0.9784144122684171,43.37049688440288
-24.981689760191276,-62.921299996501006,0.900390625,-0.434326171875,0.051513671875,41,-21,-25,1.0009975821916495,52.41183072551463
-23.595350677164394,-64.32249488563353,0.916259765625,-0.4140625,0.054443359375,37,-26,-23,1.0069477600101533,50.73460357586329
-22.701982168428323,-65.34639429769355,0.8994140625,-0.388427734375,0.04345703125,30,-32,-12,0.9806682793990601,45.47526800360829
-21.246229025326063,-66.89366782159578,0.904296875,-0.362060546875,0.03125,22,-29,-7,0.9745856761917804,37.067505985701274
-23.293598822821178,-64.88828362873122,0.911376953125,-0.4033203125,0.026123046875,15,-24,0,0.9969742417638179,28.30194339616981
-22.37252759481474,-65.73517786484295,0.909912109375,-0.385009765625,0.031005859375,15,-14,-1,0.9885008496351744,20.54263858417414
-22.832678150879573,-65.29350502530922,0.9189453125,-0.396484375,0.03564453125,1,-8,-6,1.0014643676101989,10.04987562112089
-22.184859855052956,-65.89400085631823,0.931396484375,-0.388671875,0.04541015625,-6,-4,1,1.010261015684944,7.280109889280518
-22.53794467686486,-65.65448075383135,0.9326171875,-0.395263671875,0.023193359375,-11,2,3,1.0131861233966915,11.575836902790225
-25.79959680234558,-62.27486444521664,0.92333984375,-0.45703125,0.042724609375,-7,6,-5,1.0311447147607766,10.488088481701515
-24.550599138739475,-63.65423950570225,0.927490234375,-0.43310546875,0.0205078125,-9,0,-6,1.0238354615345597,10.816653826391969
-25.274042224537716,-62.97688258068226,0.909423828125,-0.4384765625,0.013671875,-14,-1,-8,1.009703082687857,16.15549442140351
-23.96915621049348,-64.17176054948175,0.90673828125,-0.411865234375,0.0302734375,-12,8,-13,0.9963552393544404,19.4164878389476
-23.20803005778746,-64.86306065545632,0.90576171875,-0.39794921875,0.025390625,2,12,-10,0.9896527450043172,15.748015748023622
-23.529801192184514,-64.50226557032416,0.916015625,-0.40966796875,0.023193359375,12,12,-13,1.0037182880584519,21.37755832643195
-24.403902466509642,-63.51050057047228,0.912109375,-0.42578125,0.046142578125,15,10,-18,1.0076518854894654,25.475478405713993
-22.434990208163885,-65.31472760981603,0.910888671875,-0.38720703125,0.068603515625,12,2,-6,0.9921461081694316,13.564659966250536
-21.926606984126842,-66.08007042122958,0.884521484375,-0.36572265625,0.040771484375,10,-2,-8,0.9580154651954477,12.96148139681572
-23.04784511901973,-65.0731329360694,0.893310546875,-0.3896484375,0.027099609375,4,-2,-3,0.9749687312076118,5.385164807134504
-23.12814395576454,-65.01085907495225,0.9189453125,-0.401611328125,0.032470703125,-5,-1,-4,1.003397474984605,6.48074069840786
-23.940891251088726,-64.11480987983988,0.9267578125,-0.421630859375,0.056396484375,-5,-14,-10,1.019722113154827,17.916472867168917
-25.164572979064875,-63.03322488143264,0.909912109375,-0.4384765625,0.04052734375,2,-27,-15,1.0108631006424702,30.95157508108432
-25.791940348135842,-62.25772756773258,0.914794921875,-0.454833984375,0.060302734375,10,-31,-23,1.0234061374663663,39.87480407475377
-26.123175334967094,-61.89813193805283,0.92431640625,-0.46728515625,0.06005859375,19,-32,-32,1.0374600092522746,49.08156476723211
-25.41823347164551,-62.599773512591874,0.922607421875,-0.452880859375,0.05078125,31,-31,-35,1.0290210216699343,56.098128311023
-23.14737542791182,-64.80301389032623,0.914794921875,-0.405517578125,0.047607421875,48,-34,-38,1.0017787789099133,70.02856560004639
-23.387403796891377,-64.59563304346473,0.93017578125,-0.417724609375,0.03515625,57,-33,-38,1.0202729023234944,76.03946343840151
-23.207895145800197,-64.65423237583998,0.948486328125,-0.4228515625,0.05615234375,58,-36,-46,1.0399917520140989,82.3164625090267
-23.216057108649913,-64.78739666411646,0.92578125,-0.412109375,0.04248046875,53,-42,-53,1.0142532474878614,85.91856609604235
-22.342725549194487,-65.78072700698675,0.9130859375,-0.38916015625,0.02294921875,52,-47,-56,0.9928233594723754,89.71621926942753
-20.007374398395466,-68.18947581090276,0.917236328125,-0.345947265625,-0.004150390625,46,-48,-46,0.9803158766275221,80.84553172563095
-17.207542291242962,-70.9571404817354,0.9208984375,-0.295654296875,-0.01318359375,44,-43,-37,0.9672844476133983,71.79136438319027
-17.79870777491392,-70.21845736236637,0.92431640625,-0.3076171875,-0.034423828125,43,-32,-29,0.9747687689145076,60.94259594077036
-17.607080456533815,-70.40295469972962,0.935302734375,-0.307373046875,-0.034912109375,39,-27,-24,0.9851336205081952,53.16013544000805
-18.15603814782173,-69.84147351158028,0.9521484375,-0.322021484375,-0.039306640625,25,-15,-20,1.0058973582975514,35.35533905932738
-18.305648932644157,-69.83778834403175,0.946044921875,-0.32080078125,-0.017822265625,6,-3,-19,0.9991154931278432,20.149441679609886
-19.440927189888793,-68.66387721016699,0.926513671875,-0.335205078125,-0.027587890625,5,-2,-13,0.9856729276393967,14.071247279470288
-22.705378221002494,-65.43718612320409,0.904541015625,-0.38818359375,-0.0185546875,7,-3,-16,0.9844923706320908,17.72004514666935
-19.784466675842108,-68.40768517144978,0.91796875,-0.337646484375,-0.01513671875,-3,-2,-24,0.9782131131005535,24.269322199023193
-18.681023121945675,-69.30925201943288,0.935302734375,-0.324462890625,-0.045166015625,6,-4,-8,0.9910132901679575,10.770329614269007
-18.117665925206445,-69.97491540199681,0.96533203125,-0.324462890625,-0.01123046875,14,3,-8,1.0184636573674715,16.401219466856727
-18.653793497499617,-69.28597925258472,0.948974609375,-0.3291015625,0.042236328125,11,7,-9,1.0053081891101145,15.84297951775486
-19.182359550555027,-68.5918794439984,0.93408203125,-0.334228515625,0.05810546875,12,11,18,0.9937777353410943,24.269322199023193
-20.796146693722537,-66.94044261614756,0.925048828125,-0.361572265625,0.066162109375,12,6,4,0.9954030652964561,14.0
-22.913543950053977,-65.23180142726086,0.925537109375,-0.400390625,0.033203125,-4,-4,-8,1.0089767296265495,9.797958971132712
-21.416242233622487,-66.8759883954186,0.939697265625,-0.3759765625,0.01904296875,-14,-13,-4,1.0123003315376478,19.519221295943137
-19.563160116745486,-68.70661707981418,0.94091796875,-0.341552734375,0.020263671875,-7,-17,-4,1.0011970388857145,18.81488772222678
-19.772864121186192,-68.4395726577362,0.948486328125,-0.349365234375,0.0009765625,5,-10,-3,1.0107835254416546,11.575836902790225
-20.36387859334221,-67.80403659239089,0.943359375,-0.359375,0.00830078125,11,-8,-9,1.0095277133366627,16.30950643030009
-20.063503048583897,-68.0729740910401,0.944091796875,-0.35400390625,-0.014404296875,12,-5,-13,1.0083826507508884,18.384776310850235
-20.458121323947694,-67.69211597302926,0.93505859375,-0.35791015625,0.0068359375,10,-3,-10,1.0012397234099988,14.45683229480096
-19.535783004400564,-68.48072939445004,0.91552734375,-0.333740234375,-0.037353515625,12,-3,-5,0.9751759565966327,13.341664064126334
-19.610390721079995,-68.43094070740287,0.92041015625,-0.3369140625,-0.03125,13,-1,-4,0.980633725576682,13.638181696985855
-18.610738497125254,-69.35170012762119,0.918212890625,-0.318115234375,-0.04296875,16,-6,-3,0.972706804914997,17.349351572897472
-18.974247794843432,-68.90012834340996,0.94140625,-0.333251953125,-0.052490234375,17,-3,5,1.0000289078348845,17.97220075561143
-19.67121861029605,-68.42631177422282,0.951171875,-0.348876953125,0.005126953125,10,8,-2,1.0131482368642533,12.96148139681572
-19.451739897543995,-68.43327340092938,0.959228515625,-0.348876953125,0.04833984375,19,3,-3,1.021846962173739,19.467922333931785
-19.841227848436855,-68.18622233832879,0.96044921875,-0.35693359375,0.024169921875,23,0,-6,1.0249138877331203,23.769728648009426
-20.753255285014895,-67.26243724608517,0.958984375,-0.3740234375,0.022705078125,21,6,-13,1.0295921929900786,25.41653005427767
-20.658291471476097,-67.09713956282498,0.927490234375,-0.3603515625,0.05859375,19,11,-22,0.9967570471264532,31.080540535840107
-19.885719779320414,-67.97641624936777,0.938720703125,-0.35009765625,0.0458984375,24,6,-11,1.0029315001295847,27.073972741361768
-19.416946922439138,-68.59077009142399,0.935302734375,-0.34033203125,0.016357421875,32,0,-5,0.9954318970549917,32.38826948140329
-18.383008478789172,-69.65213067809978,0.934814453125,-0.320556640625,0.002685546875,30,1,-4,0.9882519080589706,30.28200785945344
-17.752341401669614,-70.34486688339977,0.951904296875,-0.313232421875,0.00439453125,16,2,-4,1.0021255671958846,16.61324772583615
-19.391983597465057,-68.73845268367458,0.935791015625,-0.337646484375,0.017822265625,6,0,-7,0.995001309791738,9.219544457292887
-19.57848721486132,-68.66518322919414,0.922607421875,-0.335205078125,0.006103515625,-6,-6,-7,0.9816334102925625,11.0
-18.49323461593372,-69.81076721227178,0.917724609375,-0.3125,-0.00390625,-17,-7,-10,0.9694792248633072,20.92844953645635
-9.673245114083837,-78.57309556311172,0.929443359375,-0.160888671875,-0.013916015625,-14,-6,-5,0.9433683154075412,16.0312195418814
-18.574179498530764,-69.58559905863218,0.933837890625,-0.32177734375,0.006103515625,8,-3,1,0.9877404101385848,8.602325267042627
-22.431324892750265,-65.72302547510968,0.9443359375,-0.398681640625,0.036376953125,-7,-6,-5,1.0256903510046802,10.488088481701515
-23.0554604342911,-65.14553274426056,0.9384765625,-0.406005859375,0.0576171875,-38,-14,-18,1.0241575838239245,44.31703961232068
-20.11714741427385,-68.42307785840867,0.922607421875,-0.34033203125,0.032470703125,-62,-29,-21,0.9839129498868369,71.596089278675
-18.62029131282693,-69.91884134780838,0.91064453125,-0.3095703125,0.024658203125,-50,-34,-19,0.9621409811759573,63.3798075099633
-15.764093529007347,-72.4642154466386,0.955078125,-0.274169921875,-0.051025390625,-22,-43,-7,0.9949607838517521,48.80573736764972
-19.689672084429507,-68.69566040331104,0.97412109375,-0.35546875,-0.025390625,-14,-37,-6,1.0372630434721704,40.01249804748511
-21.158493971965388,-66.46401087861585,0.93603515625,-0.370361328125,-0.100830078125,-27,-22,-10,1.0116798069355588,36.235341863986875
-19.96165502984395,-68.16090755723498,0.952392578125,-0.350830078125,-0.0615234375,-41,-10,-31,1.0168178302658712,52.364109846344185
-16.086291165441803,-72.07079211864793,0.95654296875,-0.279296875,-0.05224609375,-36,-16,-37,0.9978531203348331,54.04627646748664
-15.537461913303108,-72.786609984128,1.00244140625,-0.284423828125,0.006103515625,-7,-22,-32,1.04202828170484,39.45883931389772
-19.07403081266682,-69.15022582159449,0.98681640625,-0.35107421875,0.02392578125,19,-36,-52,1.0476794212560971,66.03786792439622
-16.599168773388598,-71.4489546575013,0.8984375,-0.275146484375,-0.033203125,12,-9,3,0.9402116659454602,15.297058540778355
-17.99123534111134,-70.11056101301699,0.97021484375,-0.32177734375,-0.004638671875,-6,23,17,1.022193239686316,29.223278392404914
-18.38764551192561,-69.93510268264772,0.93994140625,-0.316650390625,0.008544921875,-33,4,4,0.9918822171790572,33.481338085566414
-19.19126019079666,-69.28876516244047,0.92333984375,-0.3251953125,-0.004638671875,-40,-20,-9,0.9789432953981609,45.617978911828175
-18.3521845423293,-70.13542870080066,0.92822265625,-0.3125,-0.009521484375,-28,-35,-7,0.9794611826103723,45.36518488885502
-17.9538204838282,-70.36047754195485,0.947021484375,-0.31201171875,-0.040771484375,-24,-34,0,0.9979295157691741,41.617304093369626
-18.444911341794402,-69.4719878533962,0.981689453125,-0.334228515625,-0.07470703125,-18,-23,2,1.0397134333805353,29.274562336608895
-19.501489088789537,-68.61023071657732,0.96044921875,-0.346435546875,-0.055419921875,-23,-14,-6,1.0225222040017992,27.586228448267445
-19.635943965045122,-68.492922748493,0.955078125,-0.346923828125,-0.0517578125,-24,-10,-13,1.0174523273987854,29.068883707497267
-19.34237397795005,-68.90810035967854,0.943603515625,-0.337158203125,-0.03271484375,-21,-11,-17,1.00256346913097,29.171904291629644
-19.351971651677253,-68.50285231135021,0.95263671875,-0.341796875,-0.071533203125,-16,-5,-19,1.014622501632925,25.337718918639855
-17.958014715751528,-69.94959779163067,0.944580078125,-0.31298828125,-0.0595703125,-9,-2,-18,0.9968659941646159,20.223748416156685
-17.298159633445156,-70.56938183008845,0.946533203125,-0.301513671875,-0.060302734375,-7,0,-17,0.9952246071710242,18.384776310850235
-17.18295001064209,-70.85886415982004,0.9482421875,-0.299560546875,-0.0390625,-7,6,-25,0.9952013094369823,26.645825188948457
-15.84098807421212,-72.08604996718725,0.98291015625,-0.284423828125,-0.0556640625,-14,4,-26,1.0247476650955019,29.79932885150268
-17.71794198973162,-70.36050804736965,0.96142578125,-0.313232421875,-0.04248046875,-14,2,-18,1.0120566551290844,22.891046284519195
-17.30436387736366,-70.70758567654404,0.9560546875,-0.3037109375,-0.048828125,-15,4,-17,1.0043231974015472,23.021728866442675
-16.266744160884425,-71.95486459903913,0.966796875,-0.28662109375,-0.02392578125,-22,3,-12,1.008672539479803,25.238858928247925
-16.037986150368702,-72.22901008489889,0.953857421875,-0.277587890625,-0.02685546875,-33,1,-12,0.9937908404133341,35.12833614050059
-18.75430519211249,-69.46465933796817,0.940185546875,-0.3232421875,-0.047119140625,-41,-7,-13,0.9953163254692784,43.57751713900185
-18.38709380437576,-69.71287020443198,0.93310546875,-0.313232421875,-0.0673828125,-54,-16,-21,0.9865803613214918,60.108235708594876
-17.940604134552803,-69.92061062416106,0.942626953125,-0.308837890625,-0.085693359375,-51,-24,-24,0.9956253147064881,61.26173356998641
-9.99552945071514,-76.89949584686646,0.952880859375,-0.16943359375,-0.099609375,-38,-24,-23,0.9729397218955392,50.48762224545735
-15.387017054439173,-72.48110702787012,0.9697265625,-0.2734375,-0.062744140625,-1,-18,-11,1.009492198883719,21.118712081942874
-15.449977382803654,-72.53308291127713,1.001953125,-0.2841796875,-0.043212890625,7,-3,-2,1.0423701422244556,7.874007874011811
-17.148176021041852,-70.88408079102841,1.00048828125,-0.31591796875,-0.043701171875,-2,-1,5,1.0500908324144884,5.477225575051661
-16.06683546329922,-72.16109546262422,0.978271484375,-0.285888671875,-0.026611328125,-26,3,-6,1.0195369501064167,26.851443164195103
-18.127964078618596,-70.07938329421854,0.931640625,-0.309326171875,-0.03955078125,-33,-2,-15,0.9824465375045698,36.30426972134269
-15.951876682082084,-71.74843599872871,0.9287109375,-0.270263671875,-0.078125,-25,-12,-6,0.970386507218895,28.372521918222215
-12.630887149646714,-74.57997505366987,0.967041015625,-0.222900390625,-0.092041015625,3,-20,10,0.9966566402724113,22.561028345356956
-12.964978683571506,-73.76871869140564,0.9873046875,-0.236328125,-0.111328125,26,-18,16,1.0212812932985231,35.4400902933387
-17.41305695192743,-69.18297333991983,0.9287109375,-0.302734375,-0.12548828125,23,-5,-11,0.9848347150511342,25.98076211353316
-18.549580162882915,-68.93661734896764,0.94580078125,-0.325439453125,-0.084716796875,-6,18,-4,1.0038062019813234,19.390719429665317
-18.361947629763147,-69.26493614242841,0.95556640625,-0.324462890625,-0.07861328125,-12,14,0,1.0122071784645486,18.439088914585774
-17.854632059901807,-70.02577771225505,0.94775390625,-0.31201171875,-0.059814453125,-10,4,-10,0.9995831872596226,14.696938456699069
-17.160446131220137,-70.92460414340702,0.94921875,-0.300048828125,-0.035888671875,0,-5,-6,0.9961593905493737,7.810249675906654
-15.68328003736802,-72.0682606545392,0.9697265625,-0.280517578125,-0.0615234375,16,-6,-2,1.0113579242864508,17.204650534085253
-15.168687584156872,-72.28063308622036,0.978271484375,-0.2734375,-0.078857421875,14,6,5,1.018823663119525,16.0312195418814
-15.618340614677555,-71.76707732239242,0.95849609375,-0.27587890625,-0.08203125,9,12,4,1.0007762280471433,15.524174696260024
-15.886412715316068,-71.49137422339706,0.954345703125,-0.279296875,-0.08251953125,5,17,1,0.9977935350039285,17.74823934929885
-16.60778649501648,-70.70233483866362,0.9365234375,-0.286865234375,-0.08740234375,-1,21,1,0.9833651312573745,21.047565179849187
-15.66025351542815,-72.10449086719134,0.938232421875,-0.26904296875,-0.060546875,-6,10,3,0.9779213263670585,12.041594578792296
-18.197576702009453,-69.54737490485377,0.931640625,-0.313720703125,-0.069091796875,-5,3,-6,0.9854687260969022,8.366600265340756
-17.149224697256916,-70.23174250595291,0.933349609375,-0.29541015625,-0.092041015625,-7,0,-9,0.983300667290222,11.40175425099138
-15.604928933167608,-72.0913036602322,0.955078125,-0.272705078125,-0.072021484375,-10,-2,0,0.9958561034106566,10.198039027185569
-14.628342965045444,-73.08960613516237,0.981201171875,-0.26123046875,-0.0703125,-15,2,3,1.0178118417214785,15.427248620541512
-14.425553726196464,-73.42657086403347,0.98046875,-0.256591796875,-0.059326171875,-20,9,5,1.0152230861340013,22.494443758403985
-17.067092090075793,-71.16813368329761,0.974853515625,-0.30419921875,0.001953125,-21,11,11,1.0212151371340898,26.13426869074396
-16.94868824166468,-71.40384087684326,0.9765625,-0.30126953125,-0.007568359375,-34,-1,12,1.0220053458419256,36.069377593742864
-14.491000769627375,-73.61387623975902,0.931396484375,-0.243408203125,-0.050048828125,-36,-10,7,0.9639771001695718,38.01315561749642
-16.787039933548247,-70.72956136112644,0.94580078125,-0.291748046875,-0.091064453125,-16,-15,8,0.9939561234236866,23.345235059857504
-17.908023215814556,-69.56293123793321,0.95361328125,-0.315673828125,-0.09716796875,-13,-16,12,1.0091926823409316,23.853720883753127
-16.44104765700897,-71.06007185670384,0.974365234375,-0.2939453125,-0.092529296875,-16,-11,12,1.0219359703423465,22.825424421026653
-20.23469781069719,-67.42805156790745,0.9111328125,-0.343017578125,-0.088623046875,-25,-9,9,0.9775879015998045,28.053520278211074
-18.751274548292688,-69.3294334032009,0.96923828125,-0.33447265625,-0.061279296875,-30,-14,-1,1.0271562470456377,33.12099032335839
-19.419649782035055,-68.62011264668249,0.9462890625,-0.341064453125,-0.062744140625,-11,-28,-7,1.0078317211595167,30.886890422961002
-17.32997661030648,-69.82127141943658,0.9599609375,-0.30908203125,-0.110107421875,7,-22,-4,1.0144852625442442,23.430749027719962
-17.27890215279659,-68.9025818852805,0.983642578125,-0.318603515625,-0.1513671875,20,-6,-15,1.0449750940193103,25.709920264364882
-15.822369381200188,-70.87456603643132,0.98486328125,-0.289306640625,-0.117919921875,19,17,-15,1.0332275272364968,29.58039891549808
-15.267553463570003,-71.45783343531599,0.972900390625,-0.2744140625,-0.111572265625,11,31,-13,1.0169988290222989,35.369478367654786
-15.547699829097766,-71.63397716416112,0.96630859375,-0.27685546875,-0.088134765625,8,35,-17,1.009043599575191,39.72404813208241
-16.363810752438678,-70.99527990060686,0.95654296875,-0.28955078125,-0.0791015625,14,28,-16,1.0025323751268536,35.156791662493895
-15.560173699994603,-72.08440355229453,0.94140625,-0.269775390625,-0.057861328125,13,23,-15,0.9810058217046027,30.380915061926625
-15.584450126297531,-72.24644618151854,0.93798828125,-0.26904296875,-0.03857421875,14,25,-14,0.9765726317833792,31.89043743820395
-16.904509727922413,-70.95154620505203,0.945556640625,-0.296142578125,-0.035400390625,22,20,-11,0.9914791852908258,31.701734968294716
-16.51225729165613,-71.46049851777617,0.95458984375,-0.29150390625,-0.0166015625,22,16,-9,0.9982444134715203,28.653097563788805
-15.837632909434552,-71.940139505599,0.94482421875,-0.276123046875,-0.049072265625,18,13,-11,0.9855682769882824,24.779023386727733
-15.677610961191553,-72.41507570817019,0.998779296875,-0.28759765625,-0.010009765625,9,8,7,1.0394097801899307,13.92838827718412
-15.790560296971742,-72.48843939321486,0.94384765625,-0.271484375,-0.00244140625,-17,-2,3,0.9821192007807588,17.378147196982766
-14.367364501973395,-73.51344900550744,0.936279296875,-0.244140625,-0.0615234375,-19,-12,5,0.9695404581006155,23.021728866442675
-15.043972012935674,-72.65011104608998,0.9384765625,-0.2578125,-0.074462890625,-11,-17,12,0.9760892713262947,23.53720459187964
-16.287002556492894,-71.50122594014553,0.9541015625,-0.285400390625,-0.072021484375,-6,-20,14,0.9984739699889138,25.13961017995307
-16.885161365550147,-70.95291228985667,0.968505859375,-0.301025390625,-0.0693359375,-5,-17,13,1.0165762921068173,21.97726097583591
-17.884805377736566,-70.02992274484079,0.971923828125,-0.3203125,-0.0673828125,-14,-13,7,1.0255615382578536,20.346989949375804
-18.264495453532852,-69.61176620775144,0.965576171875,-0.324951171875,-0.072021484375,-21,-9,1,1.0213313380129359,22.869193252058544
-18.308889472425964,-69.38780983238101,0.953857421875,-0.322509765625,-0.08203125,-17,-6,0,1.0102403952357462,18.027756377319946
-19.024840779492408,-68.750498194106,0.957275390625,-0.337646484375,-0.07568359375,-12,-4,-7,1.0178945565577795,14.45683229480096
-16.92858520813088,-70.6133864887851,0.952880859375,-0.29736328125,-0.083984375,-5,-3,-12,1.001728620157748,13.341664064126334
-15.532473398173947,-71.92461510422781,0.964111328125,-0.27587890625,-0.081787109375,9,-1,-5,1.006135654468405,10.344080432788601
-15.877603727192435,-71.90247564899992,0.968505859375,-0.283203125,-0.05859375,10,2,-2,1.0107625028623368,10.392304845413264
-18.709733014247835,-69.21229898475015,0.9521484375,-0.33056640625,-0.050537109375,2,6,-20,1.0091653954623654,20.97617696340303
-14.106652603347863,-73.3742907264546,0.98291015625,-0.251953125,-0.086181640625,-18,-5,-21,1.0183418029509943,28.106938645110393
-13.56244274688599,-73.54381980391364,0.95654296875,-0.236083984375,-0.0986328125,-13,-3,-11,0.9901709602109622,17.291616465790582
-13.198626646466735,-73.96018797439062,0.96240234375,-0.2314453125,-0.09228515625,-5,4,-4,0.9941336700855689,7.54983443527075
-15.240890064797298,-72.31863781549562,0.9892578125,-0.277099609375,-0.073486328125,7,10,0,1.0299589572062364,12.206555615733702
-19.059245340436114,-69.0821707490463,0.98486328125,-0.3486328125,0.004638671875,5,4,-7,1.0447593206011327,9.486832980505138
-17.71311572698287,-69.55742983901813,0.9345703125,-0.30712890625,-0.095703125,2,7,14,0.9883870305682054,15.7797338380595
-18.538219058400458,-69.51245703378522,0.95458984375,-0.32763671875,-0.027587890625,0,14,-3,1.0096279913775434,14.317821063276353
-17.399265085858623,-70.38659776951627,0.9599609375,-0.308349609375,-0.0654296875,-1,1,-15,1.0103887999844128,15.066519173319364
-16.643969717362847,-71.0317699098513,0.953125,-0.29248046875,-0.072509765625,2,-4,-12,0.9996248077835064,12.806248474865697
-16.12782983724369,-71.40501803767924,0.943115234375,-0.28076171875,-0.076904296875,10,-2,-11,0.9870196345075934,15.0
-15.614665718885174,-71.84143694348046,0.9541015625,-0.274658203125,-0.078857421875,11,5,-10,0.9959746046428929,15.684387141358123
-15.417997792613422,-71.80935857791275,0.97509765625,-0.277099609375,-0.091796875,9,13,-13,1.0178537709316533,20.46948949045872
-16.124000569469075,-71.3043774401755,0.963134765625,-0.28662109375,-0.080810546875,9,13,-12,1.008122300429966,19.849433241279208
-15.525689161207499,-71.67366470134984,0.962158203125,-0.27490234375,-0.094970703125,2,10,-16,1.0051562768505347,18.973665961010276
-15.244573375613653,-72.19655514025129,0.953857421875,-0.266845703125,-0.08154296875,0,6,-17,0.993830904276407,18.027756377319946
-16.105263339682136,-72.0242057324579,0.9462890625,-0.279541015625,-0.022216796875,0,1,-21,0.9869649210013345,21.02379604162864
-16.588475279097633,-71.57874848717493,0.9580078125,-0.292236328125,-0.01708984375,3,-5,-30,1.0017350463303245,30.56141357987225
-16.07920303926807,-72.10068958057647,0.982421875,-0.28955078125,-0.023681640625,-2,-8,-29,1.024477044888607,30.14962686336267
-15.338247724515165,-72.75432986128548,0.974609375,-0.27294921875,-0.042724609375,-8,-12,-30,1.0130104155932318,33.28663395418648
-14.569242353832056,-73.43271954264698,0.96533203125,-0.256103515625,-0.04736328125,-9,-5,-30,0.9998490994562641,31.71750305430741
-14.842768289103056,-72.59618139050998,0.97216796875,-0.26416015625,-0.085693359375,-4,-3,-29,1.011056130714066,29.427877939124322
-14.481556640653647,-72.93597069133082,0.966064453125,-0.256591796875,-0.08349609375,5,-5,-26,1.0030411135575428,26.94438717061496
-13.8169012668767,-73.33900483298562,0.94921875,-0.240234375,-0.092529296875,4,-1,-25,0.9835092582499593,25.337718918639855
-12.975499132035896,-74.13073177917745,0.948974609375,-0.224853515625,-0.09228515625,2,-1,-24,0.9796062794773434,24.1039415863879
-12.207156682700742,-75.62432910086105,0.951904296875,-0.211181640625,-0.0517578125,3,-6,-18,0.9764211933898915,19.209372712298546
-12.525820001241252,-74.71425341860065,0.929443359375,-0.212646484375,-0.084716796875,7,-14,-7,0.9572149295096125,17.146428199482248
-11.849135737912837,-76.05766891826812,0.9912109375,-0.212890625,-0.051025390625,-1,-12,5,1.0150985820702112,13.038404810405298
-11.329149886469366,-76.38343043414181,1.009521484375,-0.206787109375,-0.067626953125,-6,-20,9,1.0326993467642664,22.737634001804146
-13.661887025055353,-72.87134326941465,1.009521484375,-0.252197265625,0.1328125,-10,-24,7,1.0489882022023318,26.92582403567252
-13.997879033500668,-70.8222047518574,0.926025390625,-0.237548828125,-0.1787109375,-33,-12,-4,0.9725687991128821,35.34119409414458
-14.726482032444352,-72.54211217301261,0.953857421875,-0.25439453125,-0.1025390625,-39,-12,0,0.9925093541797517,40.80441152620633
-15.618671273087992,-71.67260819632003,0.9384765625,-0.267578125,-0.101318359375,-26,-17,0,0.9811226841158927,31.064449134018133
-16.081085251799102,-71.35237086292373,0.968017578125,-0.2861328125,-0.093994140625,-7,-17,4,1.0137874118472683,18.81488772222678
-15.413801380728374,-72.15098299772298,0.972900390625,-0.27490234375,-0.08349609375,-5,-14,-2,1.0144348507169052,15.0
-15.496211601706406,-71.783760827555,0.98583984375,-0.280029296875,-0.101806640625,-11,-12,-7,1.0298840695479659,17.72004514666935
-14.675648418445356,-71.9888117995179,0.971923828125,-0.26123046875,-0.123291015625,-13,-1,-12,1.0139417932082408,17.72004514666935
-14.668942117330396,-72.16416264307452,0.968994140625,-0.26123046875,-0.111572265625,1,6,-14,1.009771940997383,15.264337522473747
-14.803942300797496,-72.70820451608141,0.97509765625,-0.264892578125,-0.074462890625,6,11,-13,1.0131772990203556,18.05547008526779
-14.390237961998103,-72.81175039239352,0.96875,-0.256103515625,-0.089111328125,9,14,-17,1.0059852891646508,23.790754506740637
-12.45962513346559,-73.995161840147,0.982177734375,-0.224365234375,-0.114501953125,10,23,-15,1.0139642782502727,29.223278392404914
-12.104344878044996,-75.50835151606911,0.962890625,-0.21240234375,-0.053466796875,10,28,-5,0.9874876250928192,30.14962686336267
-11.818698659920257,-75.42645099536333,0.947021484375,-0.20361328125,-0.078125,3,14,0,0.9718084048793877,14.317821063276353
-12.14820897714931,-75.1288561032047,0.95947265625,-0.212158203125,-0.0810546875,2,5,8,0.9859861782045335,9.643650760992955
-13.396738417498968,-73.94749140237542,0.97119140625,-0.237548828125,-0.084228515625,1,0,12,1.00336266432522,12.041594578792296
-15.025457049346928,-72.22616783205922,0.973388671875,-0.268310546875,-0.094482421875,-2,3,7,1.0141020580505216,7.874007874011811
-15.411624813675669,-72.03928817061174,0.972412109375,-0.27490234375,-0.083251953125,-3,8,1,1.0139464960033677,8.602325267042627
-15.477385428304975,-71.92058952681337,0.97265625,-0.27685546875,-0.08349609375,4,12,1,1.0147318507430194,12.68857754044952
-15.604971794505346,-71.48395650088668,0.968017578125,-0.279296875,-0.096923828125,15,16,-4,1.0121556226204351,22.293496809607955
-14.812073813793058,-72.58813969412515,0.9775390625,-0.267333984375,-0.0732421875,24,21,-4,1.016077996979059,32.14031735997639
-13.793963101674581,-73.55757600585001,0.977783203125,-0.248291015625,-0.07275390625,23,25,-9,1.011435391722137,35.14256678161116
-13.415756253412415,-74.27071531600708,0.9775390625,-0.240478515625,-0.048095703125,19,27,-10,1.0078321942911281,34.49637662132068
-13.182965664176688,-74.12288418478092,0.962158203125,-0.232421875,-0.07421875,14,28,-6,0.9926110812754444,31.874754901018456
-12.417074451298866,-75.52178046544546,0.957763671875,-0.217041015625,-0.02197265625,15,22,2,0.982293668537925,26.70205984563738
-14.01626779673992,-73.62777369857895,0.94873046875,-0.244140625,-0.056396484375,17,16,7,0.9812617951188383,24.372115213907882
-14.9633719992774,-72.68515195175488,0.953857421875,-0.262451171875,-0.06201171875,13,10,2,0.991246716083797,16.522711641858304
-15.47182955787476,-72.50194927026367,0.9755859375,-0.27685546875,-0.03662109375,5,10,-3,1.0147699130995078,11.575836902790225
-15.838152765874643,-71.85906818692482,0.9560546875,-0.2783203125,-0.064697265625,3,8,-18,0.9978419203562116,19.924858845171276
-14.23291575634699,-73.36235286079504,0.95654296875,-0.249267578125,-0.06591796875,6,12,-17,0.9906835797435488,21.656407827707714
-13.316104469693412,-74.22664160337357,0.963623046875,-0.2353515625,-0.062255859375,18,17,-9,0.993899153066532,26.343879744638983
-12.242868106054093,-74.78761580072604,0.998046875,-0.22412109375,-0.0888671875,19,22,-6,1.0267546963004952,29.68164415931166
-11.955235140561262,-75.97563216098912,0.971923828125,-0.211669921875,-0.018798828125,13,29,-10,0.9948836512088217,33.31666249791537
-14.812994406409729,-73.15500283030653,0.969970703125,-0.263916015625,-0.010498046875,17,25,-7,1.005288534308619,31.0322412983658
-14.39259853025563,-73.63569032797378,0.982666015625,-0.259033203125,-0.01171875,12,17,-6,1.0163011500963053,21.656407827707714
-15.45081132531835,-72.65147602589983,0.96142578125,-0.272705078125,-0.00244140625,10,7,-12,0.9993565694744858,17.11724276862369
-13.013740574825551,-74.69943809861682,0.952880859375,-0.22607421875,-0.05712890625,5,6,-19,0.9809970420322289,20.54263858417414
-12.301361038231727,-75.35694556152403,0.963134765625,-0.216064453125,-0.057861328125,10,7,-7,0.9887670898407359,14.071247279470288
-12.228266098905042,-75.40161471442389,0.962646484375,-0.2158203125,-0.0537109375,24,11,6,0.9880038086840929,27.073972741361768
-13.032470199731327,-74.90805746924194,0.970458984375,-0.23193359375,-0.020751953125,24,15,7,0.99800524839424,29.154759474226502
-13.401497202965743,-74.61409394184491,0.968505859375,-0.237548828125,0.013671875,17,13,13,0.9973063549147191,25.03996805109783
-13.639537324886124,-74.51494893704886,0.963623046875,-0.239501953125,0.003662109375,4,2,7,0.992947114938365,8.306623862918075
-14.010316988267503,-74.24242117482122,0.95556640625,-0.243408203125,-0.003662109375,-5,-9,2,0.9860872786661208,10.488088481701515
-13.980327885130157,-74.12384706271223,0.9677734375,-0.245849609375,-0.042724609375,-9,-18,-2,0.9994262599144835,20.223748416156685
-14.13014755399944,-73.53898571516703,0.974853515625,-0.251220703125,-0.076416015625,-6,-22,-2,1.0095992403171874,22.891046284519195
-13.677765591928024,-73.83768000578073,0.980712890625,-0.244384765625,-0.0810546875,-6,-10,0,1.0139484946846915,11.661903789690601
-14.991654419107071,-72.50957579201264,0.97509765625,-0.267578125,-0.082763671875,-5,-2,-6,1.014526154214366,8.06225774829855
-14.782918900053339,-73.0941833785742,0.96875,-0.26123046875,-0.053466796875,-7,6,-8,1.0047768999491464,12.206555615733702
-12.206446403779688,-75.7308692643807,0.934326171875,-0.206787109375,-0.0380859375,-1,9,-5,0.9576935014343129,10.344080432788601
-15.022628835012446,-72.97690967892453,0.98095703125,-0.2705078125,-0.03125,12,5,-9,1.0180509497477759,15.811388300841896
-14.692306651456878,-73.48848336397418,0.970703125,-0.260498046875,0.0009765625,2,-1,-9,1.0050496221504548,9.273618495495704
-13.920476549221847,-74.25351018069092,0.976806640625,-0.24755859375,-0.016357421875,-1,-3,-13,1.0078214304920154,13.379088160259652
-12.354058885454931,-75.77944927373981,0.973388671875,-0.2177734375,-0.027587890625,-4,-6,-13,0.9978335874905594,14.866068747318506
-11.888976082983753,-76.08623406438949,0.9775390625,-0.2109375,-0.040771484375,3,-6,-14,1.0008694028482286,15.524174696260024
-11.640040213048009,-75.91281134788673,0.98095703125,-0.207275390625,-0.06884765625,1,-2,-2,1.0049775044689697,3.0
-13.146317036093848,-74.91691336390565,0.969482421875,-0.231689453125,-0.030029296875,0,2,-4,0.9972351416214653,4.47213595499958
-12.065335636379656,-75.05163878599126,0.96630859375,-0.212158203125,-0.090087890625,0,1,-4,0.9934179531021137,4.123105625617661
-14.523636937951185,-73.34469129335186,0.976806640625,-0.259765625,-0.048095703125,7,6,0,1.0119004841187826,9.219544457292887
-14.806801115541354,-73.33909499851329,0.970458984375,-0.261962890625,-0.017822265625,-5,6,-24,1.0053520923391817,25.238858928247925
-12.695604946835859,-75.52582441798424,0.959228515625,-0.2197265625,-0.019775390625,-15,-3,-18,0.984271392213844,23.62202362203543
-12.214092271229017,-75.89583168728895,0.966064453125,-0.213623046875,-0.0302734375,-4,-6,-13,0.9898645436452052,14.866068747318506
-12.240340983943433,-75.95521620833672,0.9765625,-0.216796875,-0.015869140625,1,-10,-6,1.0004634081465407,11.704699910719626
-12.460163300024048,-75.6761307805968,0.98388671875,-0.221923828125,-0.031494140625,-6,-10,-4,1.0090962004268986,12.328828005937952
-13.467744418525394,-74.59448222028796,0.9951171875,-0.242431640625,-0.045654296875,-17,-7,-9,1.0252393047758117,20.46948949045872
-13.896690006854424,-74.23576157123813,0.95947265625,-0.240966796875,-0.042236328125,-23,-10,-15,0.9901700271676127,29.223278392404914
-13.535759254924912,-74.53920544503137,0.958251953125,-0.234619140625,-0.04736328125,-18,-16,-12,0.9876923747940233,26.90724809414742
-13.649212699319198,-73.74207324847191,0.9697265625,-0.240966796875,-0.08984375,-10,-19,-17,1.0032479766380427,27.386127875258307
-13.289837733532062,-74.54468284015178,0.984375,-0.23779296875,-0.060302734375,-5,-11,-19,1.0144831474130265,22.516660498395403
-11.933009563217313,-76.11932505410383,0.985107421875,-0.2119140625,-0.037841796875,-13,1,-18,1.0083532139628415,22.22611077089287
-10.948208617451224,-77.23005061742235,0.96728515625,-0.190185546875,-0.01904296875,-14,4,-17,0.9859887171770999,22.38302928559939
-11.845224154561864,-76.1485864292599,0.974853515625,-0.20849609375,-0.041015625,-9,1,-15,0.99774359408095,17.52141546793523
-11.588113507857855,-76.37261203017181,0.965087890625,-0.201904296875,-0.044189453125,-8,-3,-5,0.986971473496112,9.899494936611665
-11.284103433854474,-76.87777433611066,0.9599609375,-0.196044921875,-0.0234375,1,-13,-3,0.9800550644352101,13.379088160259652
-11.359140638466608,-76.66531120414793,0.964599609375,-0.198486328125,-0.044189453125,1,-26,1,0.98580015044959,26.038433132583073
-11.709908799773974,-76.12323482296712,0.9775390625,-0.20703125,-0.06298828125,-7,-31,6,1.0012053139914763,32.341923257592455
-12.243903804066065,-74.75659635178562,0.998046875,-0.2216796875,-0.106689453125,-12,-25,3,1.0279212459889497,27.892651361962706
-12.76901115741017,-73.78748435182723,0.989990234375,-0.22998046875,-0.124267578125,-14,-16,2,1.023920949652555,21.354156504062622
-13.580779803598393,-73.93482648929485,0.985107421875,-0.24267578125,-0.08203125,-17,-3,-2,1.0178689961950258,17.378147196982766
-12.84912944381942,-74.87053641642134,0.97265625,-0.22607421875,-0.065673828125,-15,0,-2,1.0007411177462817,15.132745950421556
-14.235981564730686,-73.63211046460935,0.95458984375,-0.247314453125,-0.055908203125,-9,-1,-4,0.9876902022860374,9.899494936611665
-13.99986938514009,-74.20552695433956,0.98974609375,-0.251708984375,-0.020751953125,-8,-6,-8,1.0214623764324264,12.806248474865697
-12.071403756605775,-75.88559876216898,0.95703125,-0.208740234375,-0.051025390625,-10,-17,-8,0.9808592607565707,21.283796653792763
-11.502923562904384,-75.78568333559512,0.984375,-0.205322265625,-0.086669921875,-4,-17,-11,1.0092883873027578,20.639767440550294
-13.714546992080942,-72.87083256020526,0.975341796875,-0.245361328125,-0.122802734375,0,-13,-12,1.0132000363406006,17.69180601295413
-11.37604725766117,-75.42188088056025,0.988525390625,-0.2041015625,-0.104248046875,-5,-2,-13,1.0147450670008218,14.071247279470288
-13.114008445416626,-74.16753153240062,0.977294921875,-0.233154296875,-0.087646484375,-7,5,-16,1.0085376525927205,18.16590212458495
-12.903994712787151,-75.00736726757245,0.979248046875,-0.22900390625,-0.0478515625,-8,6,-18,1.0068064850903338,20.591260281974
-12.306298999808385,-75.4834519841018,0.974609375,-0.217529296875,-0.055419921875,-3,2,-20,1.0001268902381606,20.322401432901575
-11.328534749603786,-76.38987317495281,0.983642578125,-0.2021484375,-0.05615234375,3,3,-20,1.0057682625698159,20.445048300260872
-8.031194970980154,-78.80184527706008,0.974609375,-0.142333984375,-0.08203125,13,5,-13,0.9883579933012713,19.05255888325765
-11.346772012114183,-75.738331558307,0.985107421875,-0.205322265625,-0.08251953125,27,12,-7,1.0096550591327278,30.364452901377952
-11.94606677662162,-75.82266724219744,0.979248046875,-0.21337890625,-0.04541015625,14,15,-6,1.0032543930786437,21.37755832643195
-12.25604052436471,-75.4462186121379,0.976806640625,-0.21826171875,-0.05517578125,10,8,-4,1.0024139653243813,13.416407864998739
-9.65200685231838,-78.20408065432623,0.962158203125,-0.168212890625,-0.039306640625,8,5,-5,0.9775423246132977,10.677078252031311
-10.208788557259377,-77.65926491897909,0.9609375,-0.17822265625,-0.043212890625,12,-9,0,0.978279892476189,15.0
-10.032489467205426,-77.39582643320709,0.970703125,-0.17724609375,-0.069580078125,13,-14,3,0.9892027708747486,19.339079605813716
-10.990717566062601,-75.8129815706758,0.99609375,-0.19921875,-0.10400390625,3,-14,5,1.0211305899129082,15.165750888103101
-10.710429754059986,-75.5533710402527,0.97412109375,-0.188720703125,-0.1201171875,-13,-5,6,0.9994776374734958,15.165750888103101
-11.470471782371188,-74.94513657993639,0.97265625,-0.2021484375,-0.11669921875,-13,7,8,1.0002714027225883,16.792855623746664
-12.383613016653698,-74.59954384579818,0.978515625,-0.220703125,-0.09619140625,-1,12,13,1.0076981117330024,17.72004514666935
-15.174465208401498,-72.90374335475931,0.975830078125,-0.270263671875,-0.02880859375,-6,10,-8,1.0129741994654424,14.142135623730951
-12.673046168758205,-75.28966136390876,0.9677734375,-0.22216796875,-0.043701171875,-7,2,-12,0.9939083584980638,14.035668847618199
-10.118910497849107,-77.80910009303442,0.991943359375,-0.18115234375,-0.04150390625,-1,-1,-8,1.0092028409037934,8.12403840463596
-11.69278734505673,-76.00810401049257,0.969970703125,-0.206298828125,-0.05810546875,7,-3,-6,0.9933673121787391,9.695359714832659
-11.483441796018909,-75.92170765792328,0.987060546875,-0.2060546875,-0.07568359375,4,-1,-10,1.0111750905757182,10.816653826391969
-12.175131645235831,-75.33019067968095,0.977294921875,-0.216064453125,-0.072509765625,-2,2,-11,1.0035172536323729,11.357816691600547
-10.728509218783126,-75.85067528750994,0.9560546875,-0.185791015625,-0.10595703125,-7,-1,-12,0.9796865618395534,13.92838827718412
-11.693470636618594,-75.35584328422988,0.955322265625,-0.202880859375,-0.091552734375,-3,-1,-9,0.980909362515804,9.539392014169456
-12.1824343246838,-75.51921841782999,0.976318359375,-0.2158203125,-0.061767578125,-2,-1,-10,1.0017939807404102,10.246950765959598
-11.534238373386033,-76.41378690451582,0.976318359375,-0.203125,-0.047119140625,-10,-5,-9,0.9983373767874917,14.352700094407323
-8.788975534229657,-77.79558357230763,0.980712890625,-0.15478515625,-0.10009765625,-13,-5,0,0.9978856443601758,13.92838827718412
-10.440984240755975,-77.6461368082242,0.97216796875,-0.182373046875,-0.032958984375,-11,-4,0,0.9896750892798117,11.704699910719626
-11.498127100570137,-76.44199579124496,0.988525390625,-0.204833984375,-0.048583984375,-12,-4,4,1.0106927389681777,13.2664991614216
-12.398195090214607,-75.18285845620602,0.985107421875,-0.22119140625,-0.0732421875,-10,-4,0,1.012287848816653,10.770329614269007
-12.55022092083143,-74.90653367736704,0.9775390625,-0.22265625,-0.078857421875,-7,-3,-1,1.00567237078594,7.681145747868608
-11.573647769061871,-75.75379615080598,0.981201171875,-0.206298828125,-0.08056640625,1,-3,1,1.0058856257003883,3.3166247903554
-11.252712886569382,-76.00193715138153,0.9853515625,-0.201904296875,-0.08056640625,8,2,1,1.0090460805304282,8.306623862918075
-11.200115877108622,-75.78552697691518,0.982421875,-0.2001953125,-0.09228515625,4,5,-5,1.0068502637878063,8.12403840463596
-11.382424352728677,-76.76289037014283,0.99755859375,-0.205322265625,-0.00830078125,-1,7,-10,1.0185034529618546,12.24744871391589
-9.314961139587316,-76.30855881878696,0.978271484375,-0.16455078125,-0.131103515625,-12,0,3,1.0006398895509243,12.36931687685298
-12.472319265059804,-75.33506414211979,0.969970703125,-0.218994140625,-0.056640625,-9,1,-1,0.9959968669374818,9.1104335791443
-13.219374092014451,-74.48108259577442,0.9580078125,-0.230224609375,-0.064208984375,-5,-1,-2,0.9873728440905064,5.477225575051661
-11.748225104097974,-75.40267872421984,0.980224609375,-0.2099609375,-0.087890625,7,-2,0,1.0063044479992826,7.280109889280518
-10.413904647468783,-76.09710857634305,0.993896484375,-0.189697265625,-0.10546875,20,7,-2,1.017319483478592,21.283796653792763
-12.743545601852185,-74.1473914680741,0.993408203125,-0.23291015625,-0.09765625,22,16,-5,1.0250091424394727,27.65863337187866
-12.022442621520547,-75.04754238302648,0.984619140625,-0.216796875,-0.0849609375,17,24,-12,1.011777691983648,31.76476034853718
-11.5519168016968,-75.6102516160241,0.97265625,-0.20556640625,-0.076904296875,18,27,-8,0.9971118286934724,33.421549934136806
-11.58709464017996,-76.35176356747844,0.969482421875,-0.204833984375,-0.016845703125,17,25,-7,0.9910282060533538,31.0322412983658
-11.15862129341932,-76.5331856430942,0.976806640625,-0.198486328125,-0.05029296875,13,14,-5,0.9980367820513087,19.748417658131498
-10.263870275242034,-77.56908619710971,0.975830078125,-0.18212890625,-0.040283203125,14,6,-5,0.9934978693078687,16.0312195418814
-9.977392284391593,-77.89049296113325,0.979248046875,-0.17724609375,-0.04052734375,10,1,-1,0.9959846287215314,10.099504938362077
-9.816591090799028,-78.05248740406284,0.98095703125,-0.17431640625,-0.042724609375,6,-2,6,0.9972403415892154,8.717797887081348
-12.546154885022338,-75.54886461500435,0.976806640625,-0.222412109375,-0.02783203125,0,-2,11,1.0021940837628387,11.180339887498949
-9.810758352301026,-77.99631891757052,0.998291015625,-0.17578125,-0.055419921875,-12,-9,6,1.0151627295511727,16.15549442140351
-11.747895330393241,-76.01152470996064,0.954833984375,-0.202880859375,-0.060791015625,-7,-13,6,0.9780409645811853,15.937377450509228
-11.082237236789192,-76.1959441134895,0.981201171875,-0.19677734375,-0.08544921875,-6,-16,8,1.004379724848707,18.867962264113206
-10.858579427534723,-76.41748078856199,0.976806640625,-0.19189453125,-0.083251953125,-5,-12,11,0.9989522571133629,17.029386365926403
-11.320621747828424,-75.83624302873595,0.978271484375,-0.20068359375,-0.0888671875,-5,-5,14,1.0025898358530476,15.684387141358123
-12.458267729177647,-74.70529231815902,0.976318359375,-0.220947265625,-0.091796875,-7,1,6,1.0052073911883168,9.273618495495704
-12.585946021489386,-75.65550919305583,0.951904296875,-0.21630859375,0.00439453125,-12,0,9,0.9761815968579298,15.0
-12.319179722120069,-75.85945073185347,0.973388671875,-0.21630859375,-0.0361328125,-14,-20,2,0.997787800288137,24.49489742783178
-11.725630705713328,-76.21187942591264,0.968017578125,-0.204345703125,-0.057373046875,-17,-26,10,0.9910130495873211,32.63433774416144
-12.22799986416411,-74.98391381408823,0.99072265625,-0.219482421875,-0.097900390625,-13,-29,4,1.0194549531998454,32.03123475609393
-11.88729078888612,-75.49104877894969,0.997314453125,-0.21435546875,-0.08740234375,-13,-19,11,1.0238278932945923,25.514701644346147
-10.784343364123687,-76.83206221844844,0.972900390625,-0.18896484375,-0.069580078125,-12,-18,10,0.9935211469936714,23.83275057562597
-11.391437140330725,-75.28623524941356,0.9931640625,-0.205322265625,-0.11181640625,-7,-13,4,1.0203112253178204,15.297058540778355
-12.33450904243122,-73.27918110203052,0.97265625,-0.21923828125,-0.148681640625,-9,-1,8,1.0080832479951536,12.083045973594572
-13.633906165603056,-72.53341753261239,0.97802734375,-0.24462890625,-0.134521484375,-3,12,5,1.0170923343798268,13.341664064126334
-14.493249081819144,-73.48172607470359,0.969970703125,-0.256591796875,-0.03369140625,0,17,-2,1.0039012033061077,17.11724276862369
-13.517533038541204,-73.75748613793357,0.97265625,-0.24072265625,-0.082275390625,8,17,-4,1.0053739691272172,19.209372712298546
-11.486706161178802,-76.5272668656014,0.974609375,-0.203857421875,-0.022705078125,14,6,-4,0.9959602416081049,15.748015748023622
-8.943986254230985,-78.52800096854087,0.961669921875,-0.156494140625,-0.058349609375,16,4,1,0.9760656389829738,16.522711641858304
-10.293375951224007,-76.83751418953575,0.97998046875,-0.18408203125,-0.080810546875,16,1,3,1.0003890532422035,16.30950643030009
-13.026139108823164,-73.17781566543961,0.975341796875,-0.23291015625,-0.130126953125,1,7,1,1.0111734695616519,7.14142842854285
-12.380789192380954,-73.93500658425127,0.9423828125,-0.212158203125,-0.120849609375,-13,7,-1,0.973499407567734,14.798648586948742
-12.963071896436254,-73.92333462221295,0.950927734375,-0.22412109375,-0.103271484375,-12,5,1,0.9824249692227304,13.038404810405298
-13.38386380428818,-74.06633573704829,0.95068359375,-0.23095703125,-0.081787109375,-14,-5,-1,0.9817482248362595,14.89966442575134
-11.805845030679036,-75.76111253575282,0.974853515625,-0.208251953125,-0.072021484375,-8,-8,-2,0.9994475209426344,11.489125293076057
-11.39477855593647,-76.14210139578373,1.00244140625,-0.20654296875,-0.072509765625,-7,-2,3,1.026063563828057,7.874007874011811
-11.050115064278787,-77.02126723135486,0.9912109375,-0.197265625,-0.029296875,-9,7,5,1.0110742585542543,12.449899597988733
-11.554569409894972,-76.15149736417636,0.99951171875,-0.208984375,-0.057373046875,-4,13,5,1.022736433017051,14.491376746189438
-13.79720850501437,-73.96983538924209,0.980224609375,-0.246337890625,-0.05712890625,-3,12,0,1.0123173183894796,12.36931687685298
-12.703757510099672,-75.18898813889842,0.957763671875,-0.220703125,-0.045166015625,-4,9,1,0.9839009551350614,9.899494936611665
-11.991271195972944,-75.94823225043196,0.962890625,-0.209716796875,-0.042236328125,4,-4,1,0.9863687941220988,5.744562646538029
-12.101678833928437,-75.76161734969719,0.977783203125,-0.215087890625,-0.052734375,4,-13,-1,1.0025486059605977,13.638181696985855
-10.901834337823766,-76.39119302304302,0.986328125,-0.19482421875,-0.083740234375,-2,-16,1,1.0088667271898422,16.15549442140351
-9.86722301959997,-77.5846660289419,0.98388671875,-0.174560546875,-0.072998046875,-11,-10,3,1.0019147542109086,15.165750888103101
-12.096410756143916,-75.85752573218942,0.969482421875,-0.212158203125,-0.0498046875,-7,-14,10,0.9936738782793965,18.57417562100671
-12.768615094705646,-74.58303500605619,0.97998046875,-0.227783203125,-0.08837890625,-3,-20,10,1.0099790779156275,22.561028345356956
-13.86816999106547,-73.6299583945678,0.986328125,-0.24951171875,-0.084716796875,-5,-17,11,1.0209192933980407,20.85665361461421
-13.300858641034457,-73.19601037159373,0.978271484375,-0.237548828125,-0.125244140625,-10,-7,5,1.0144607620039927,13.19090595827292
-12.710687987264995,-74.42947943011833,0.939208984375,-0.216796875,-0.091064453125,-10,0,1,0.968197880581981,10.04987562112089
-14.022175772958356,-72.81697493311863,0.971435546875,-0.25,-0.110595703125,3,-3,-1,1.0091671968915972,4.358898943540674
-13.957583653912103,-74.01453297688114,0.972412109375,-0.247802734375,-0.04443359375,4,-7,-1,1.004472921425164,8.12403840463596
-12.479274539640096,-75.37326672135593,0.9833984375,-0.223388671875,-0.0546875,5,-14,-4,1.009933516750369,15.394804318340652
-11.123143760435878,-74.90084902460065,0.9873046875,-0.2001953125,-0.131103515625,-1,-10,-4,1.015892140394678,10.816653826391969
-10.013790098661092,-76.22495951301842,0.96630859375,-0.17529296875,-0.11376953125,-5,4,0,0.9886472725341104,6.4031242374328485
-13.494841070663947,-73.16410447307173,0.956787109375,-0.236083984375,-0.1123046875,-4,13,1,0.9918616653440218,13.638181696985855
-15.479854947180458,-72.10979436327193,0.96826171875,-0.274658203125,-0.075927734375,-5,5,-3,1.009322993589207,7.681145747868608
-13.411884685234584,-73.45877187222837,0.96826171875,-0.2373046875,-0.107177734375,-3,-1,-5,1.0026621252704895,5.916079783099616
-13.462477280753497,-74.71754646996878,0.980712890625,-0.240478515625,0.006591796875,4,-4,-5,1.0097876717910987,7.54983443527075
-9.608967344070244,-77.17026834750463,1.009521484375,-0.176025390625,-0.097900390625,4,-5,5,1.0294187933217047,8.12403840463596
-10.981775330536541,-76.54715347730551,0.982666015625,-0.196533203125,-0.06494140625,12,0,16,1.0042286514736636,20.0
-13.09842728872769,-74.48641329806341,0.98583984375,-0.237060546875,-0.061279296875,22,10,19,1.0157918352867348,30.740852297878796
-13.794557400152375,-73.35242379610206,0.981689453125,-0.2490234375,-0.090576171875,16,10,14,1.016823926603179,23.49468024894146
-12.981116225071165,-74.35778680461274,0.966796875,-0.229248046875,-0.080078125,6,6,11,0.9968266502302612,13.892443989449804
-12.747240505967996,-73.94619210368433,0.9599609375,-0.2236328125,-0.109619140625,1,1,13,0.9917424022113316,13.076696830622021
-12.09101556746939,-75.08550170637092,0.95703125,-0.210205078125,-0.088134765625,-4,-2,12,0.9838001449775627,12.806248474865697
-13.949572619917392,-72.51290754785187,0.96484375,-0.245849609375,-0.129150390625,-16,-9,-10,1.0040145993672067,20.904544960366874
-11.709611790230325,-74.86033447416621,0.963134765625,-0.203369140625,-0.1171875,-26,-16,-9,0.9913225984866504,31.827660925679098
-12.714831183026192,-74.63801310396501,0.96630859375,-0.22265625,-0.087890625,-14,-14,1,0.9955163815739325,19.82422760159901
-12.650726306563824,-74.54933824694155,0.980224609375,-0.2255859375,-0.09326171875,-5,-10,4,1.0101618920778637,11.874342087037917
-13.350308868084076,-73.76567325095635,0.98974609375,-0.240966796875,-0.098876953125,-5,-2,5,1.023444663452238,7.3484692283495345
-13.882852399692787,-73.02367613625671,0.9853515625,-0.249755859375,-0.1083984375,-9,9,3,1.0222748711896315,13.076696830622021
-12.989822712469449,-74.13930775324684,0.9833984375,-0.232421875,-0.093505859375,-7,12,4,1.014808238335408,14.45683229480096
-13.68633256870791,-73.23894905651778,0.963134765625,-0.240966796875,-0.102783203125,-3,11,3,0.9981272267583708,11.789826122551595
-13.466923409637808,-73.73634213492039,0.9609375,-0.236083984375,-0.089111328125,-3,10,0,0.993517667374278,10.44030650891055
-11.922789456166639,-75.13986161136094,0.95947265625,-0.207763671875,-0.090576171875,-4,8,-4,0.9858790820145962,9.797958971132712
-14.334173633190233,-73.8364223979515,0.978515625,-0.25537109375,-0.00146484375,-4,7,-1,1.0112909421424796,8.12403840463596
-13.801972913968216,-73.67328617135672,0.975830078125,-0.2451171875,-0.081298828125,-10,1,-2,1.0094237348288637,10.246950765959598
-12.904885625609612,-74.49845048076587,0.9755859375,-0.22802734375,-0.084716796875,-16,-3,-5,1.0054557805384554,17.029386365926403
-13.067788778772284,-74.35373152730872,0.979736328125,-0.232177734375,-0.08447265625,-14,-4,-3,1.0104085325457701,14.866068747318506
-13.197121986934514,-73.89481728297672,0.988525390625,-0.23779296875,-0.098388671875,-5,2,-1,1.0214735800061467,5.477225575051661
-13.595776772670547,-73.7042672181636,0.991455078125,-0.245849609375,-0.088623046875,-4,6,-2,1.0253190951148323,7.483314773547883
-14.78986712323938,-72.81793548583022,0.982666015625,-0.265625,-0.07275390625,-5,9,-8,1.020530386497113,13.038404810405298
-13.476095311066596,-74.19125745016291,0.970947265625,-0.23779296875,-0.06591796875,-8,8,-12,1.0018129901412383,16.492422502470642
-13.946038897968569,-73.90746172279185,0.961181640625,-0.244384765625,-0.05224609375,-1,3,-11,0.9931383157729273,11.445523142259598
-11.933799815706504,-75.59899699759156,0.966552734375,-0.20947265625,-0.070068359375,0,-2,-10,0.9914698971878693,10.198039027185569
-13.005721352922986,-74.30259967457971,0.972412109375,-0.23095703125,-0.085693359375,4,-6,-5,1.003130007817493,8.774964387392123
-12.17277862361493,-74.75665790543914,0.974609375,-0.2158203125,-0.1015625,-4,-6,-6,1.0033727037007427,9.38083151964686
-12.211336747116807,-74.84374609674711,0.97314453125,-0.2158203125,-0.096435546875,-7,-4,-6,1.0014432089192378,10.04987562112089
-12.532964227637393,-74.49699820980611,0.969970703125,-0.22119140625,-0.09765625,-5,-2,-4,0.9996527128376744,6.708203932499369
-13.374123404294444,-74.00643794967303,0.971435546875,-0.23681640625,-0.08349609375,-3,-1,-8,1.0033646543869303,8.602325267042627
-13.323389232731536,-73.96484913722325,0.969482421875,-0.235595703125,-0.087890625,-2,-2,-8,1.0015619120246482,8.48528137423857
-12.561448563671394,-74.53406090131925,0.979248046875,-0.22412109375,-0.09521484375,-1,-3,-6,1.0090702990587601,6.782329983125268
-13.519404331012193,-73.81656782740698,0.9814453125,-0.2421875,-0.08642578125,-1,0,-7,1.01457335971784,7.0710678118654755
-11.257055982293489,-75.70638584376327,0.988037109375,-0.201904296875,-0.095703125,-2,2,-5,1.0129865560477391,5.744562646538029
-13.208452508366825,-73.84009803309898,0.990478515625,-0.2392578125,-0.0966796875,4,11,-9,1.0235423551236589,14.7648230602334
-13.669369470147036,-73.61121597398649,0.995361328125,-0.24853515625,-0.0869140625,0,15,-15,1.0295960138225233,21.213203435596427
-12.975974887081367,-74.60323793530026,0.9736328125,-0.22998046875,-0.066162109375,0,14,-13,1.0026112378684369,19.1049731745428
-12.641638663098602,-74.84149915536918,0.96826171875,-0.223388671875,-0.0693359375,8,11,-12,0.9961128083444085,18.138357147217054
-13.365277046642998,-73.80397661443723,0.969482421875,-0.238037109375,-0.086181640625,17,12,-11,1.001990572283511,23.53720459187964
-12.630498047451566,-74.95993668401569,0.967041015625,-0.2236328125,-0.05859375,18,14,-7,0.9942902937607075,23.853720883753127
-12.957164587130517,-74.86122219010451,0.97021484375,-0.22998046875,-0.045166015625,16,7,-10,0.9981221508446471,20.12461179749811
-11.993184525554591,-75.78391215154649,0.96728515625,-0.21142578125,-0.051513671875,11,-1,-9,0.9914610899419124,14.247806848775006
-11.942705857009255,-75.85492022508741,0.974853515625,-0.2119140625,-0.053466796875,8,-7,-7,0.9990523735919696,12.727922061357855
-9.993477358953117,-77.06131088354596,0.994140625,-0.18017578125,-0.0888671875,3,-11,-16,1.0142367925877067,19.6468827043885
-12.59187506861833,-75.22825312335705,0.971923828125,-0.223388671875,-0.0556640625,11,-17,-5,0.9988177582788739,20.85665361461421
-12.160837195840811,-74.57573246372756,0.98876953125,-0.219482421875,-0.111328125,2,-14,-12,1.0189365391703626,18.547236990991408
-11.380608312570462,-74.80928195895518,0.97802734375,-0.202392578125,-0.12646484375,-7,-9,-14,1.0067241913788885,18.05547008526779
-11.17438033404463,-75.51295118834511,0.977783203125,-0.19775390625,-0.107177734375,-11,-1,-10,1.0033213176725972,14.89966442575134
-12.309345432071405,-74.26782397189314,0.9609375,-0.215576171875,-0.11328125,-4,0,-8,0.9913155937379842,8.94427190999916
-11.121034230326362,-75.761044988796,0.9833984375,-0.19921875,-0.09716796875,6,-1,-8,1.0080685549009079,10.04987562112089
-12.7308254362456,-75.17888335462638,0.982421875,-0.228759765625,-0.043212890625,17,-8,-1,1.0096292016198267,18.81488772222678
-12.567652763785183,-74.25638173335012,0.97119140625,-0.223876953125,-0.1044921875,13,-8,-8,1.002123872065186,17.233687939614086
-11.310604373203281,-74.52453733786533,0.986328125,-0.20361328125,-0.13671875,-1,-1,-10,1.0163629052011736,10.099504938362077
-10.305402146511176,-75.42400860485122,0.9765625,-0.18310546875,-0.13232421875,-2,3,0,1.0023530455683791,3.605551275463989
-11.870676715965255,-74.77568205142703,0.98291015625,-0.213623046875,-0.106201171875,12,12,4,1.0114474135234026,17.435595774162696
-17.288245069480084,-68.29561774433289,0.9482421875,-0.3076171875,0.166259765625,12,15,-1,1.0106601257919872,19.235384061671343
-10.632932851322558,-74.74867344569194,0.98974609375,-0.191650390625,-0.1455078125,-5,13,-16,1.0185773047828202,21.213203435596427
-9.717786438116407,-77.94892324408195,0.97802734375,-0.172119140625,-0.05419921875,6,2,-4,0.9945350868648524,7.483314773547883
-14.56418495839692,-73.1386831410291,0.959228515625,-0.257568359375,-0.055908203125,25,2,10,0.9947796399785915,27.0
-12.120045677330246,-75.61253377350421,1.0078125,-0.2216796875,-0.0615234375,-1,-2,-10,1.033737419448558,10.246950765959598
-11.001353987917836,-76.53617480409524,0.998046875,-0.197021484375,-0.0751953125,-22,-5,-15,1.020083018692384,27.09243436828813
-10.300522648047886,-76.93672093311274,0.973876953125,-0.179931640625,-0.083251953125,-20,-2,-9,0.9938524049501338,22.02271554554524
-12.09309651168343,-75.37910163069361,0.96875,-0.212646484375,-0.074951171875,-3,-3,-1,0.994642030070358,4.358898943540674
-11.469995161837351,-75.56726865983006,0.9794921875,-0.203857421875,-0.094482421875,-4,-5,-2,1.0049326951942714,6.708203932499369
-11.781032610615693,-75.5949362837531,0.9736328125,-0.207763671875,-0.080078125,-7,-3,-8,0.998768793580956,11.045361017187261
-11.60846987277847,-75.21102256475567,0.9794921875,-0.205810546875,-0.105224609375,-13,-4,-9,1.0063971109838517,16.30950643030009
-11.834487078639732,-75.74473919266548,0.973388671875,-0.2080078125,-0.071533203125,-13,-4,-12,0.9979327410927723,18.138357147217054
-11.65973488708975,-75.44836302146335,0.97802734375,-0.206298828125,-0.09423828125,-12,-8,-18,1.0039808490511077,23.065125189341593
-11.655265015276589,-75.73620197722315,0.98486328125,-0.2080078125,-0.07958984375,-5,-4,-10,1.0097313880650147,11.874342087037917
-10.46817211814372,-76.29188414374704,0.98779296875,-0.188232421875,-0.098388671875,7,4,-6,1.010369597974025,10.04987562112089
-10.79671240319715,-76.76364183670275,0.970703125,-0.191162109375,-0.057373046875,17,11,1,0.991009170216495,20.273134932713294
-10.753019734122287,-76.75331873071612,0.97119140625,-0.18994140625,-0.064453125,10,3,5,0.9916877990095198,11.575836902790225
-10.137023971501472,-77.60032438963046,0.983642578125,-0.18017578125,-0.05517578125,0,-5,7,1.0015290312746767,8.602325267042627
-11.073247721523959,-76.75013861172376,0.954833984375,-0.190673828125,-0.056640625,-9,-16,15,0.9753320495347574,23.706539182259394
-10.863431520612794,-75.76610155228973,0.963134765625,-0.188720703125,-0.111328125,-18,-25,11,0.9877439101100719,32.71085446759225
-11.20578513408397,-74.65682560072511,0.97119140625,-0.197265625,-0.138671875,-17,-24,18,1.0006779518389064,34.48187929913333
-12.59908898691084,-73.59417170099199,0.981201171875,-0.225341796875,-0.1357421875,-12,-20,16,1.015854618818565,28.284271247461902
-12.458984157870441,-73.98413323471071,0.99755859375,-0.2265625,-0.125732421875,-7,-10,9,1.0306611258222949,15.165750888103101
-13.239047540266798,-73.5854129218107,0.994140625,-0.240234375,-0.11083984375,-5,3,4,1.0287437038298488,7.0710678118654755
-12.551381545269557,-74.46713258516561,0.984375,-0.224853515625,-0.096435546875,-4,12,-3,1.014323941753818,13.0
-13.48726117132062,-72.27103205902664,0.998291015625,-0.248046875,-0.1484375,5,22,-12,1.0393006761669645,25.553864678361276
-12.961197589706847,-73.12635458958081,0.99169921875,-0.23583984375,-0.131103515625,4,33,-12,1.0277528419705875,35.34119409414458
-10.596831712335172,-76.90102331066362,0.98046875,-0.188720703125,-0.055419921875,9,38,-4,1.000002920623329,39.25557285278104
-12.734371711151732,-74.54046369837646,0.98046875,-0.230224609375,-0.0673828125,34,39,1,1.0093873309631165,51.749396131742444
-11.854584818888743,-75.52020310570812,0.969482421875,-0.211181640625,-0.0595703125,30,38,-6,0.9940032564297915,48.78524367060187
-12.435390577569969,-74.45904997527276,0.9970703125,-0.228759765625,-0.091552734375,32,29,-12,1.0270648186016265,44.82186966202994
-12.067811733793855,-75.06855375967721,0.97119140625,-0.215087890625,-0.077880859375,23,30,-11,0.9977679973442489,39.370039370059054
-9.871384951080238,-76.73724248333008,0.98095703125,-0.177001953125,-0.09375,18,32,-20,1.0011970091190237,41.80908992073375
-10.095640568839395,-76.90804077793773,0.97509765625,-0.18017578125,-0.07763671875,23,30,-7,0.9946387341500217,38.44476557348217
-9.631280005998953,-78.18269734636598,0.984130859375,-0.1728515625,-0.027587890625,22,28,4,0.9995760615090802,35.832945734337834
-11.23691296534474,-76.7228361180848,0.975830078125,-0.200439453125,-0.01416015625,24,16,9,0.9963035811275182,30.215889859476256
-11.812642763489652,-76.20944751248933,0.979248046875,-0.211181640625,-0.013671875,19,9,9,1.0018539528352346,22.869193252058544
-12.82071085655575,-75.32011465055591,0.95849609375,-0.223876953125,-0.001708984375,9,0,4,0.9842959780991367,9.848857801796104
-13.423888456175296,-74.53491122863053,0.945068359375,-0.23095703125,-0.046142578125,0,-9,-4,0.9739735580043174,9.848857801796104
-11.378220076343345,-76.14868530728434,0.9482421875,-0.1953125,-0.073486328125,-5,-22,-6,0.9709327779163346,23.345235059857504
-10.302807161218372,-77.08204039605546,0.968505859375,-0.180419921875,-0.07958984375,-3,-32,2,0.9883772008101147,32.202484376209235
-10.099572189594397,-77.08264456400327,0.975830078125,-0.177978515625,-0.087890625,-6,-30,6,0.9958139662408901,31.176914536239792
-11.17916629358201,-75.78835054282729,1.0087890625,-0.20361328125,-0.103759765625,-15,-19,1,1.0343499552296482,24.228082879171435
-11.427614810214992,-75.74077998029121,1.01416015625,-0.20849609375,-0.096435546875,-23,-9,4,1.039851555913205,25.019992006393608
-11.595539485509024,-75.46588265335436,0.982177734375,-0.205810546875,-0.09423828125,-14,4,1,1.0079245689831897,14.594519519326424
-12.666067424733821,-74.57895715147053,0.978515625,-0.2255859375,-0.08544921875,-2,11,-2,1.0078111988621083,11.357816691600547
-12.670553977631073,-75.24800219603748,0.97412109375,-0.224853515625,-0.036376953125,8,12,-2,1.00039706691707,14.560219778561036
-12.378280586517054,-75.58900052383925,0.96142578125,-0.217041015625,-0.029296875,13,8,-7,0.9860550908546997,16.792855623746664
-11.584692981409777,-76.29918927758803,0.976318359375,-0.206298828125,-0.041015625,16,-2,-9,0.9987186925418892,18.466185312619388
-12.185413074342552,-75.47130988088554,0.97802734375,-0.2177734375,-0.0615234375,15,-7,-9,1.0038664694893755,18.841443681416774
-9.995427232771265,-77.34122076209066,0.983154296875,-0.1787109375,-0.0732421875,11,-6,-7,1.0019453022374474,14.352700094407323
-10.031936577949397,-77.44769482098087,0.99853515625,-0.181640625,-0.067138671875,6,0,-2,1.0171398016884117,6.324555320336759
-11.048749868604517,-76.13344862471305,0.97802734375,-0.196044921875,-0.083984375,0,3,1,1.001011724087084,3.1622776601683795
-11.827793821412932,-75.44541835258872,0.975830078125,-0.209228515625,-0.083251953125,-6,5,0,1.0014748128750977,7.810249675906654
-12.28061534449976,-75.51478640202191,0.968505859375,-0.215087890625,-0.055908203125,-10,5,0,0.9936760676970566,11.180339887498949
-11.563329922499689,-76.27162525428557,0.97216796875,-0.203369140625,-0.0517578125,-4,-1,-1,0.9945594190277608,4.242640687119285
-13.081044886634787,-75.07610785048129,0.9716796875,-0.23095703125,-0.01953125,0,-4,-5,0.9989414572989118,6.4031242374328485
-10.06624283361294,-78.12296274934265,0.9833984375,-0.17919921875,0.010986328125,7,-12,3,0.9996527128376744,14.212670403551895
-12.296091782785268,-75.93252752825876,0.9619140625,-0.215576171875,0.00634765625,13,-23,2,0.9857951319901116,26.49528259898354
-10.028739881760204,-76.30539970968422,0.98828125,-0.179931640625,-0.116943359375,-1,-22,3,1.0113115117022435,22.22611077089287
-10.243842456828295,-75.31573268346207,0.984375,-0.18310546875,-0.14111328125,-8,-13,12,1.0111551371853376,19.4164878389476
-11.535127022692311,-74.35032526497896,0.960693359375,-0.20166015625,-0.133544921875,-9,1,20,0.990672900368531,21.95449840010015
-13.842176210645661,-74.09013126326279,0.97265625,-0.24462890625,-0.050048828125,-9,1,13,1.0041953831968258,15.84297951775486
-11.955172882033253,-76.11490086463306,0.967041015625,-0.208740234375,-0.043212890625,-10,-19,11,0.9902566158648624,24.124676163629637
-8.731071399581918,-79.37223845078725,0.973876953125,-0.152587890625,-0.034912109375,-6,-24,19,0.986376317423747,31.192947920964443
-10.895792791697911,-73.17186989256537,0.947509765625,-0.190185546875,-0.178955078125,4,-14,24,0.9828378392093021,28.071337695236398
-11.643490880839499,-75.97002690082235,1.0126953125,-0.21337890625,-0.06884765625,-6,0,16,1.0372185658592104,17.08800749063506
-17.104990301367334,-70.35571820257346,0.934814453125,-0.294921875,-0.090576171875,-8,-10,1,0.984408968384806,12.84523257866513
-15.238670267803043,-72.27571939134245,0.966552734375,-0.2685546875,-0.08984375,-21,-15,10,1.0071830558146193,27.676705006196094
-13.438602867759359,-73.72926109467409,0.983154296875,-0.240478515625,-0.102783203125,-12,-25,22,1.017342948462127,35.397740040855716
-11.216158259590172,-75.06776905595729,0.9833984375,-0.20068359375,-0.12451171875,-4,-20,24,1.0113602522266414,31.496031496047245
-11.028555313025873,-74.06394302945831,0.985595703125,-0.19873046875,-0.15869140625,-3,-8,23,1.0178780141282453,24.535688292770594
-16.79903395386568,-69.95348964653053,0.99462890625,-0.309326171875,-0.128173828125,-4,4,26,1.0494750459020596,26.60826939130014
-13.29342220061382,-72.45081270769367,0.95703125,-0.23193359375,-0.147705078125,-23,9,12,0.9957503680593168,27.459060435491963
-13.864037653025337,-71.19189839098449,0.952392578125,-0.2431640625,-0.1689453125,-11,18,5,0.9973579612029028,21.6794833886788
-14.825597664596541,-72.45420620677375,0.97509765625,-0.265380859375,-0.08642578125,4,20,5,1.0142543346772197,21.0
-14.636480716961191,-72.90497940797042,0.978759765625,-0.263427734375,-0.067138671875,15,18,8,1.0158112281843459,24.758836806279895
-13.969227073131897,-73.59689229456575,0.99169921875,-0.25439453125,-0.063232421875,17,20,3,1.0257593563674892,26.419689627245813
-14.032103350804727,-73.46107286881265,0.991943359375,-0.255126953125,-0.07080078125,10,20,1,1.0266713890260197,22.38302928559939
-14.041257011405376,-73.54832588325193,0.995849609375,-0.255126953125,-0.0673828125,-2,23,-9,1.0302167976322247,24.779023386727733
-13.187769606749292,-74.775042261841,0.9736328125,-0.232666015625,-0.0341796875,-9,25,-14,1.0016299613335609,30.033314835362415
-5.647103255573977,-81.95620092607352,0.95556640625,-0.0966796875,-0.04150390625,-2,18,-3,0.9613410908531095,18.35755975068582
-12.75433061200591,-75.01071463943933,0.9658203125,-0.2275390625,-0.03271484375,43,15,14,0.9928006657947825,47.644516998286385
-12.29839306709945,-74.62998206675489,0.976318359375,-0.2216796875,-0.0908203125,34,13,13,1.0052799370649883,38.65229618017538
-14.646923741521375,-72.69104559471647,0.98193359375,-0.264404296875,-0.081787109375,11,18,11,1.0201923083422415,23.790754506740637
-13.086978516796576,-74.5724819905735,0.95361328125,-0.226806640625,-0.0595703125,-4,19,7,0.9820224867788605,20.639767440550294
-15.498659904430369,-72.43229161789078,0.95361328125,-0.271484375,-0.03759765625,9,12,6,0.992217536531695,16.15549442140351
-14.501918720197262,-73.31341773006544,0.978515625,-0.2607421875,-0.049072265625,17,5,14,1.0138478209105133,22.58317958127243
-14.902243065110634,-72.82495386144754,0.97607421875,-0.268310546875,-0.055908203125,24,2,13,1.0138230404017512,27.367864366808018
-13.895831400860267,-73.74223643126015,0.97705078125,-0.249267578125,-0.062255859375,17,5,5,1.0102664731010615,18.411952639521967
-13.906728186485111,-73.73997905096519,0.973876953125,-0.248291015625,-0.061767578125,13,8,5,1.0069260062067895,16.06237840420901
-13.624520660861844,-73.92356527256625,0.955322265625,-0.238525390625,-0.06591796875,13,10,10,0.9868536729301958,19.209372712298546
-13.709885200434126,-73.75971591121076,0.954345703125,-0.239990234375,-0.070068359375,14,12,7,0.9865498510739446,19.72308292331602
-13.653658263800924,-73.85879498306245,0.971923828125,-0.243408203125,-0.06787109375,15,13,9,1.00423601130039,21.79449471770337
-13.952040697049329,-73.49217753254023,0.9609375,-0.245849609375,-0.072998046875,11,14,9,0.9945710754811115,19.949937343260004
-13.31481278764461,-74.36445118494498,0.96044921875,-0.233154296875,-0.057861328125,3,16,11,0.9900361413812881,19.6468827043885
-13.791544935175619,-74.07903826903176,0.955810546875,-0.240478515625,-0.044677734375,3,12,12,0.9866102664900528,17.233687939614086
-13.574746342951133,-74.0432966735329,0.951416015625,-0.235595703125,-0.06591796875,1,6,17,0.9823659953005496,18.05547008526779
-14.04783878294507,-73.61819479197781,0.964599609375,-0.2470703125,-0.06640625,-4,6,18,0.997950868412024,19.390719429665317
-15.683348053603302,-72.1318779058023,0.97412109375,-0.279296875,-0.0615234375,-11,8,14,1.0152358263158754,19.519221295943137
-15.343071382004474,-72.7499766347625,0.95361328125,-0.2666015625,-0.03271484375,-13,8,10,0.9907194074537048,18.24828759089466
-17.251714712224288,-70.92448350106164,0.953857421875,-0.302734375,-0.003173828125,-3,5,5,1.0007507962812867,7.681145747868608
-17.04930463893513,-71.09899621891338,0.98291015625,-0.308837890625,0.009765625,5,1,5,1.0303342105243034,7.14142842854285
-14.964568208077434,-72.96483394588417,0.97119140625,-0.26708984375,-0.03955078125,15,3,3,1.0080247995489682,15.588457268119896
-13.55742179565355,-74.32817976880477,0.980224609375,-0.243408203125,-0.04052734375,16,6,4,1.0108067588636036,17.549928774784245
-12.177075635379746,-75.51826709224592,0.970947265625,-0.21533203125,-0.054443359375,8,12,8,0.996027387016517,16.492422502470642
-13.847455789319923,-73.95135720508262,0.960205078125,-0.242919921875,-0.048828125,6,15,16,0.9916592490829746,22.737634001804146
-14.933056761992379,-72.79192777611388,0.9384765625,-0.2568359375,-0.058837890625,4,9,16,0.9747639994001214,18.788294228055936
-17.058751416130292,-70.96488697656686,0.941650390625,-0.296142578125,-0.035888671875,4,3,11,0.9877721809768122,12.083045973594572
-15.400297258774557,-72.48579927040696,0.9541015625,-0.269775390625,-0.054443359375,6,-10,9,0.9930018289670206,14.730919862656235
-15.650011581185217,-72.19519959103705,0.9775390625,-0.28125,-0.05810546875,7,-7,10,1.0188525048857837,14.071247279470288
-15.36481655019,-72.53117380903366,0.994140625,-0.2802734375,-0.052490234375,5,-2,8,1.0342262841120407,9.643650760992955
-15.067934545349043,-72.96982526446246,0.98486328125,-0.271240234375,-0.031494140625,-1,10,6,1.022017039188696,11.704699910719626
-16.345885134295397,-71.7660376154199,0.9716796875,-0.291259765625,-0.014404296875,-3,14,7,1.0144955149927923,15.937377450509228
-16.39655105601474,-71.62845681919109,0.953369140625,-0.287109375,-0.032470703125,0,11,1,0.9961921792858913,11.045361017187261
-15.663223695722706,-72.4208730500167,0.94091796875,-0.270263671875,-0.02099609375,4,7,4,0.9791883946436163,9.0
-15.397344618775366,-72.55765371874867,0.938232421875,-0.265869140625,-0.03515625,16,3,4,0.9758086079289148,16.76305461424021
-14.850497405679691,-72.98308092324866,0.9609375,-0.2626953125,-0.045654296875,20,5,7,0.9972432105253328,21.77154105707724
-14.381814481323653,-73.30730367534711,0.960693359375,-0.25390625,-0.056640625,17,10,10,0.9952930598254346,22.11334438749598
-14.454614086170116,-73.6035438846566,0.96826171875,-0.256103515625,-0.011474609375,9,14,12,1.0016243973528687,20.518284528683193
-13.97131417480088,-74.25331026449416,0.968505859375,-0.245361328125,-0.0009765625,-12,4,14,0.9991029649927416,18.867962264113206
-15.142465925421604,-73.16455910979569,0.941162109375,-0.25830078125,-0.011962890625,-25,-3,13,0.976037151172877,28.337254630609507
-15.795486779587714,-72.50100468201214,0.95751953125,-0.27490234375,-0.027587890625,-25,-14,18,0.9965821807726646,33.83784863137726
-18.98672577298525,-69.28503717893294,0.97314453125,-0.34130859375,-0.029296875,-15,-17,17,1.0316783131161333,28.337254630609507
-18.014961928925132,-70.21557062113448,0.956298828125,-0.317138671875,-0.03271484375,-13,-16,17,1.0080449627241208,26.720778431774775
-16.673717310298752,-71.36392977267815,0.956787109375,-0.293701171875,-0.04296875,3,-10,16,1.0017725612650203,19.1049731745428
-15.49442208723619,-72.33832425389613,0.955322265625,-0.2724609375,-0.052978515625,13,-2,16,0.9948277824729718,20.71231517720798
-15.994437390313612,-71.86976198714284,0.950927734375,-0.280517578125,-0.048828125,15,0,19,0.9926418555711328,24.20743687382041
-15.998096351494866,-71.86118299732914,0.946044921875,-0.279052734375,-0.048583984375,14,2,19,0.9875382657423405,23.68543856465402
-16.89154852597695,-71.04180579135513,0.923828125,-0.288330078125,-0.043701171875,12,-1,21,0.9687633513484253,24.20743687382041
-16.130375381056478,-71.84995136517227,0.93310546875,-0.27734375,-0.04052734375,12,-6,22,0.9742935066327038,25.768197453450252
-16.2074684580254,-71.78893924321521,0.948486328125,-0.283203125,-0.04443359375,10,-13,27,0.9908605698600338,31.591137997862628
-16.03035855121285,-71.57080160829778,0.9609375,-0.2841796875,-0.0751953125,10,-7,31,1.0048946754341075,33.31666249791537
-16.82317399839699,-71.03352514517239,0.960693359375,-0.2978515625,-0.057861328125,2,-1,39,1.0074697103751076,39.06404996924922
-17.61301961502946,-70.33062029988265,0.95703125,-0.310546875,-0.052978515625,-8,4,36,1.0075489557171187,37.094473981982816
-19.191425934705496,-68.64119093005671,0.94775390625,-0.3369140625,-0.068603515625,-16,5,28,1.0081939271184375,32.63433774416144
-19.754361285692955,-68.25810900739815,0.933349609375,-0.341796875,-0.054443359375,-19,2,20,0.9954550097620013,27.65863337187866
-18.190571777251293,-69.6025115606317,0.93310546875,-0.3134765625,-0.0703125,-12,-3,22,0.9868623099015503,25.238858928247925
-18.228220315169203,-69.65812681632737,0.944580078125,-0.319091796875,-0.056640625,3,-2,24,0.998628689365541,24.269322199023193
-18.21780976852986,-69.57578985711476,0.95654296875,-0.323974609375,-0.057861328125,14,5,29,1.0115739873470138,32.58834147360065
-17.679937560616512,-70.21617577718085,0.9638671875,-0.316162109375,-0.040283203125,17,12,29,1.0151951393685943,35.6931365951495
-18.16586483319489,-69.72242994026323,0.96484375,-0.325927734375,-0.03857421875,19,15,36,1.019137046869093,43.382023926967726
-19.958258226826725,-67.92978993931781,0.93310546875,-0.34912109375,-0.03564453125,23,16,35,0.9969161883129323,44.83302354291979
-20.283529041977694,-67.73236666839978,0.925537109375,-0.351318359375,-0.020263671875,13,15,23,0.9901788458970582,30.380915061926625
-19.933407319759137,-68.1811238232821,0.94873046875,-0.3525390625,-0.000732421875,5,10,16,1.0121135456878227,19.519221295943137
-18.36003540779101,-69.8001714032275,0.930419921875,-0.315673828125,0.015380859375,-3,4,13,0.9826330788346618,13.92838827718412
-19.99306976415517,-68.20474270257577,0.95361328125,-0.355224609375,-0.00048828125,2,-4,11,1.0176261846575059,11.874342087037917
-19.593391733860567,-68.60049738528937,0.952880859375,-0.346923828125,-0.0166015625,-2,-4,15,1.014205938930346,15.652475842498529
-18.590520505348604,-69.38697652607969,0.95947265625,-0.330322265625,-0.048828125,-3,3,15,1.0159157263523777,15.588457268119896
-19.831243145273326,-68.0443703100826,0.944091796875,-0.3486328125,-0.060302734375,-5,6,24,1.008211574349069,25.238858928247925
-20.224814270943128,-67.6469486188207,0.935546875,-0.352783203125,-0.060302734375,-7,9,25,1.00166878932235,27.477263328068172
-20.943671357273416,-67.04880793928172,0.9091796875,-0.356201171875,-0.0458984375,-4,7,20,0.9775447025955705,21.563858652847824
-18.831624232681644,-69.30022006798436,0.94580078125,-0.329833984375,-0.004638671875,-2,13,23,1.001674144788894,26.49528259898354
-19.131997823202553,-69.03830526073095,0.944580078125,-0.334716796875,0.005615234375,-6,9,28,1.002146889910844,30.01666203960727
-20.707944298143417,-67.46301376411861,0.926513671875,-0.357666015625,-0.028076171875,-10,0,33,0.993549613422255,34.48187929913333
-19.151518612794472,-68.80736992891666,0.949951171875,-0.336181640625,-0.060791015625,-22,3,33,1.0095151668106435,39.774363602702685
-19.17426217439586,-68.90342949265377,0.938720703125,-0.330810546875,-0.052490234375,-40,12,35,0.9966882165973336,54.48853090330111
-23.269954816652877,-64.94041042281296,0.94775390625,-0.4130859375,-0.04736328125,-48,11,8,1.034949631133397,49.889878733065686
-23.33662593454443,-65.07413131517357,0.92626953125,-0.40380859375,-0.015869140625,-56,7,25,1.0105881725671557,61.72519744804386
-21.379205235382784,-66.4776493513304,0.9189453125,-0.36669921875,-0.07470703125,-29,3,25,0.9922247451640034,38.40572873934304
-21.28476034352307,-66.61463399237374,0.932861328125,-0.370361328125,-0.067138671875,-27,12,14,1.005935073522537,32.69556544854363
-20.77421873965877,-67.04849849927206,0.955322265625,-0.370849609375,-0.06396484375,-9,18,23,1.0267724018537092,30.56141357987225
-21.239756201506705,-66.85112586810126,0.95361328125,-0.37744140625,-0.023681640625,-21,32,21,1.0258660367860224,43.657759905886145
-22.81412024644755,-65.21155972318795,0.9111328125,-0.391357421875,-0.02294921875,-12,37,12,0.9918922826154271,40.70626487409524
-21.40716582098653,-66.51853674819205,0.935791015625,-0.375,-0.03564453125,-8,41,23,1.0087617942470368,47.686476070265456
-22.888874446067096,-65.05165756874912,0.913330078125,-0.394775390625,-0.022216796875,-1,44,20,0.9952452093400526,48.342527861087284
-21.688297783296445,-66.31680501595986,0.930419921875,-0.378173828125,0.02001953125,-7,38,25,1.0045384297935385,46.021733996015406
-22.195225992261307,-65.90824704905087,0.916748046875,-0.3818359375,-0.005615234375,-11,28,30,0.993104826024281,42.485291572496
-21.251209121094373,-66.966667942698,0.919921875,-0.364013671875,-0.002197265625,-23,17,25,0.9893265575085218,37.986839826445156
-22.537529867151356,-65.53951310278302,0.92431640625,-0.390625,-0.04833984375,-27,13,28,1.004631997291391,41.012193308819754
-23.45218171935383,-64.78624192722401,0.898681640625,-0.396240234375,-0.017822265625,-32,17,34,0.9823200332305173,49.68903299521938
-22.91625018389834,-65.13501250644624,0.908935546875,-0.391357421875,-0.046875,-27,20,36,0.9907177830515621,49.24428900898052
-25.679905451363,-62.406146596731354,0.920166015625,-0.451171875,-0.040283203125,-25,24,19,1.0256141055758805,39.52214569073901
-25.292019795984995,-62.896806240820915,0.896240234375,-0.431884765625,-0.0126953125,-20,18,30,0.9949533554147093,40.29888335921977
-23.798719393269522,-64.28055744870201,0.90966796875,-0.409912109375,-0.043212890625,-14,8,29,0.9986947004456272,33.18132004607411
-23.43076020144877,-64.39499923642691,0.915771484375,-0.40673828125,-0.06640625,-7,14,23,1.0042326578376435,27.820855486487112
-24.287821086421545,-63.755036322179585,0.924560546875,-0.4267578125,-0.027587890625,-7,26,18,1.0186734153185315,32.38826948140329
-23.843812101201767,-64.2184278911844,0.9404296875,-0.42431640625,-0.000732421875,-13,39,35,1.0317232895433086,53.99073994677235
-26.27841847465804,-61.52809471508444,0.94580078125,-0.4775390625,0.065673828125,-20,44,26,1.0615534493029926,54.881690936048976
-22.593494131274547,-65.48296907480982,0.93017578125,-0.39404296875,-0.001220703125,-23,46,33,1.010197176476692,61.106464469808756
-21.803316064676775,-66.16345535083012,0.94287109375,-0.385009765625,-0.02001953125,-12,51,45,1.0186457680113379,69.06518659932803
-20.99496217441431,-66.91584604137088,0.91162109375,-0.35693359375,-0.02099609375,-13,62,37,0.9792320689550538,73.3621155638249
-26.972619468801955,-60.84525674405073,0.883544921875,-0.459716796875,0.04638671875,-17,63,45,0.9970671441665809,79.26537705707328
-25.90484813551042,-61.86550420786484,0.883544921875,-0.437744140625,0.06640625,-32,53,37,0.9882719016858074,72.12489168102785
-26.5496992460861,-61.630158208414365,0.873046875,-0.443115234375,0.0322265625,-43,30,38,0.9795920111010722,64.7533782902483
-27.20499525983481,-61.15292223696906,0.87109375,-0.4541015625,0.002197265625,-49,15,33,0.9823529805167951,60.95079983068311
-25.225521318287196,-63.11275869062771,0.862548828125,-0.411865234375,-0.020751953125,-48,11,39,0.9560617635618981,62.81719509815764
-27.264405994024504,-61.04589836978296,0.88427734375,-0.46240234375,-0.01123046875,-47,21,28,0.9979421183632814,58.60034129593445
-28.47071556649983,-59.47493596781855,0.892822265625,-0.4951171875,-0.060546875,-23,26,25,1.0227113724927155,42.77849927241488
-29.987845512408995,-58.36182558134101,0.8623046875,-0.505859375,0.0,-44,12,48,0.9997315046350511,66.2117814289874
-28.331368605515266,-59.843171607331556,0.81396484375,-0.4462890625,0.04345703125,-45,19,40,0.9293014622463232,63.13477647065839
-31.795925252068532,-56.265455738684814,0.906005859375,-0.57373046875,0.064697265625,-37,18,40,1.074336541393468,57.38466694161429
-28.150930915598195,-60.0717327030905,0.923095703125,-0.50244140625,-0.037841796875,-41,17,31,1.051658236041084,54.13871073455665
-26.31434951724243,-61.82683747360465,0.878173828125,-0.442626953125,-0.00390625,-24,34,23,0.9834241967866667,47.54997371187496
-26.406350624617822,-61.5726132786094,0.9013671875,-0.457763671875,0.004638671875,-8,51,39,1.0109559353734991,64.69930447848725
-29.299072006223565,-58.37677485527959,0.859130859375,-0.495849609375,0.063232421875,2,50,26,0.9939673072208884,56.39148871948674
-30.125371573157555,-57.79271999958791,0.850830078125,-0.50634765625,0.041748046875,-6,39,10,0.9909806608859423,40.70626487409524
-28.334355883439184,-59.684360445591594,0.905517578125,-0.49951171875,0.0380859375,-14,31,22,1.0348548594354663,40.50925820105819
-31.973455649212106,-56.0438085040254,0.82421875,-0.52685546875,0.055908203125,-23,18,-17,0.9798157785931042,33.793490497431605
-31.49289013985752,-56.65952885951476,0.846435546875,-0.531005859375,0.032470703125,-14,9,1,0.999737317631784,16.673332000533065
-29.413124268127746,-58.736878529789074,0.85498046875,-0.49462890625,0.0166015625,3,2,14,0.987889147991556,14.45683229480096
-25.004691460877787,-62.94792992676139,0.900390625,-0.43212890625,-0.04638671875,15,2,14,0.9997951774644163,20.615528128088304
-28.667421732441152,-59.13425015643081,0.863037109375,-0.485595703125,0.065185546875,5,17,9,0.9924139230045151,19.87460691435179
-28.686717071033417,-58.662531655458245,0.869384765625,-0.490478515625,0.114501953125,-14,13,12,1.0047436201638602,22.561028345356956
-29.687204650995337,-58.64069257705107,0.8974609375,-0.522216796875,0.013916015625,-24,-6,0,1.0384315927241616,24.73863375370596
-30.179004659411106,-58.08806818422072,0.880615234375,-0.522705078125,0.029541015625,-27,1,8,1.0244883900343404,28.178005607210743
-24.577506105541406,-63.59630931228668,0.8701171875,-0.406005859375,0.03466796875,-20,4,7,0.960805155006463,21.563858652847824
-34.88610487856967,-52.84028241367284,0.92333984375,-0.664306640625,0.10107421875,-9,10,60,1.141961373046685,61.48983655857283
-30.864460651744817,-57.32454431978867,0.81494140625,-0.497314453125,0.0498046875,-33,-1,17,0.9559977342048035,37.134889255254286
-28.859330768094026,-59.44618034340493,0.8623046875,-0.48388671875,0.0224609375,-35,5,24,0.9890501627220397,42.731721238442994
-22.421721800413543,-65.3443369408662,0.86328125,-0.364013671875,-0.07470703125,-22,8,38,0.9398625486908557,44.63182720884279
-29.89023387005399,-58.1481077779317,0.841796875,-0.49560546875,0.029052734375,-9,29,60,0.9772874811381435,67.24581771381771
-40.38224793046875,-44.97094804177624,0.70556640625,-0.644775390625,0.22314453125,-31,17,20,0.9815053437505797,40.620192023179804
-30.085755860706897,-58.3851170288692,0.879150390625,-0.517333984375,-0.027099609375,-51,-15,7,1.0204284637120236,53.61902647381804
-34.07134797228197,-54.2908075047054,0.864990234375,-0.597412109375,-0.04541015625,-38,-19,19,1.0522221325759376,46.54030511288038
-31.775644866836835,-56.54318924328926,0.858154296875,-0.542236328125,-0.006103515625,-31,5,0,1.0151287040008734,31.400636936215164
-31.26448619762839,-56.87283056330785,0.853271484375,-0.52978515625,0.006103515625,-17,28,9,1.004381297482852,33.97057550292606
-30.42085613496604,-57.23629700151328,0.877197265625,-0.530517578125,0.07421875,3,39,3,1.0278289577410995,39.230090491866065
-32.013295635836144,-55.80832228230744,0.84423828125,-0.543212890625,0.05224609375,5,37,0,1.0052602520647358,37.33630940518894
-31.550425202573177,-56.549779178200026,0.8408203125,-0.52880859375,-0.002685546875,-9,28,5,0.9932897557603562,29.832867780352597
-30.863162902722472,-57.225565840699375,0.84326171875,-0.51611328125,0.013427734375,-9,28,11,0.9887585900725674,31.400636936215164
-31.97005273916255,-55.821969990464716,0.822265625,-0.52734375,0.0771484375,-16,20,13,0.9798796202235224,28.722813232690143
-31.914450684191078,-56.23768442057154,0.797607421875,-0.5087890625,0.05029296875,-20,-7,0,0.9474034474580518,21.18962010041709
-32.14587165074064,-56.22395005807631,0.846435546875,-0.543701171875,-0.0029296875,-21,-15,4,1.0060182316343358,26.115129714401192
-33.70250975583585,-54.62890730066042,0.843994140625,-0.57568359375,0.002685546875,-22,-6,7,1.0216383517097747,23.853720883753127
-31.61341719699941,-56.34985312947812,0.84716796875,-0.535400390625,0.0673828125,-13,3,1,1.004433964468453,13.379088160259652
-31.990979305506986,-56.1036028791942,0.856201171875,-0.5498046875,0.029052734375,6,4,0,1.0179438601866806,7.211102550927978
-31.872767581079998,-56.21308676253994,0.830322265625,-0.531005859375,0.015380859375,11,8,-6,0.9857174333034436,14.866068747318506
-30.161943654287075,-57.830664308667345,0.8671875,-0.518310546875,0.03955078125,9,12,-3,1.0110510607558834,15.297058540778355
-30.913595102925036,-56.692581660541805,0.814208984375,-0.50341796875,0.0947265625,-1,-3,4,0.9619454470708884,5.0990195135927845
-30.31559866436605,-57.930570659675695,0.8525390625,-0.5107421875,0.02783203125,-8,-13,1,0.994210770985793,15.297058540778355
-31.66791056105625,-56.59943329183812,0.834716796875,-0.527099609375,0.000244140625,-12,-3,-1,0.987211319218526,12.409673645990857
-33.26039926928778,-54.69308813760395,0.84619140625,-0.5703125,0.07080078125,-14,4,-1,1.02289246467711,14.594519519326424
-31.833269279679467,-56.33216003670364,0.855712890625,-0.54541015625,0.031005859375,-1,-5,-5,1.0152232035557625,7.14142842854285
-33.194818889293714,-54.92749826415504,0.8515625,-0.572998046875,0.0078125,9,5,-10,1.0264241269012848,14.352700094407323
-29.672478284263534,-58.18090264145621,0.8857421875,-0.51953125,-0.0517578125,11,25,-12,1.0281686698196133,29.832867780352597
-36.324976614953606,-51.481192527359134,0.886962890625,-0.671875,0.01611328125,11,66,-27,1.1128247044361916,72.15261603018979
-28.700245419292095,-58.63344213762364,0.862548828125,-0.486572265625,0.08349609375,2,79,-26,0.9938383411032023,83.19254774317228
-32.72848028297097,-54.7436615562182,0.859130859375,-0.5703125,0.068359375,16,77,-26,1.0334578778726624,82.83115355951527
-29.028458708048984,-58.77509909605989,0.87060546875,-0.4970703125,-0.00537109375,17,62,-80,1.0025276187887924,102.63040485158382
-29.797218186018476,-57.83581021735472,0.811279296875,-0.480712890625,0.054443359375,34,37,-38,0.9445755978909645,63.0
-31.07672659144139,-55.45664872856413,0.83935546875,-0.531005859375,0.146240234375,41,30,-42,1.0039278020660496,65.91661399070799
-30.265690786413597,-57.319176790493884,0.8203125,-0.49609375,0.081298828125,28,4,-44,0.9620972434737618,52.306787322488084
-28.40736038713468,-58.87127010867861,0.849365234375,-0.4755859375,0.118896484375,1,-11,-34,0.9806832614607977,35.749125863438955
-28.18775429388229,-59.962830637865224,0.837646484375,-0.45947265625,0.0595703125,-19,-25,-28,0.957243635005517,42.07136793592526
-27.92825549203467,-60.471637096885296,0.847412109375,-0.4580078125,0.024169921875,-27,-24,-20,0.9635676543709143,41.291645644125154
-29.294517772420075,-58.963510242103105,0.873291015625,-0.500732421875,0.05224609375,-25,-24,-18,1.0080177630380731,39.05124837953327
-28.953908379317443,-59.34628926833453,0.87939453125,-0.497314453125,0.051025390625,-23,-33,-26,1.011563145516808,47.89572005931219
-29.081363713142665,-59.33252023951644,0.857421875,-0.48779296875,0.014404296875,-12,-36,-30,0.9865706948105225,48.373546489791295
-30.1494763804878,-57.67279257856513,0.887451171875,-0.53125,0.089599609375,-1,-20,-42,1.0381831413399387,46.52956049652737
-28.62761117613192,-59.50880772382216,0.860595703125,-0.48291015625,0.048583984375,6,-27,-30,0.9880220578430234,40.80441152620633
-29.320106113340366,-59.016789976642215,0.837646484375,-0.483154296875,-0.006591796875,8,-38,-23,0.9670228328021081,45.13313638558703
-29.855218528388356,-58.38155399854617,0.866455078125,-0.5107421875,-0.030517578125,4,-25,-21,1.0062471401576754,32.89376840679705
-25.605213930478318,-62.20427384385253,0.887451171875,-0.437744140625,0.07666015625,5,-13,-11,0.9925050602743066,17.74823934929885
-27.181600108152328,-60.820406750296,0.86181640625,-0.455810546875,0.05029296875,16,-14,-1,0.9762275121250374,21.283796653792763
-27.92878024094754,-60.191602162700356,0.88916015625,-0.484130859375,0.031982421875,7,-6,-8,1.0129221824852543,12.206555615733702
-30.276405705398226,-57.185476679055206,0.878173828125,-0.52880859375,0.10888671875,-10,15,1,1.0308657132467405,18.05547008526779
-26.21857401565392,-62.051812637387016,0.89306640625,-0.4482421875,0.007568359375,-24,7,-4,0.9992727078684298,25.317977802344327
-28.299095397034574,-59.866570395046665,0.851318359375,-0.468017578125,0.03955078125,-24,7,13,0.9722899087928546,28.178005607210743
-29.09384614649557,-58.964774833277346,0.858154296875,-0.488525390625,0.063232421875,-24,-3,10,0.9894868335185226,26.1725046566048
-27.709367287281008,-60.71526990495841,0.85693359375,-0.458984375,-0.01025390625,-24,-25,10,0.97216612941658,36.069377593742864
-28.84023153232091,-59.62884624015129,0.8408203125,-0.47216796875,0.00634765625,-26,-31,0,0.9643452086083939,40.45985664828782
-28.066655803807468,-60.38296737682369,0.87255859375,-0.474609375,-0.026123046875,-25,-37,-9,0.9936271795512146,45.552167895721496
-27.28944947906673,-61.053485270587736,0.915771484375,-0.482421875,0.0498046875,-24,-39,-9,1.0362667532879162,46.66904755831214
-28.658094859165843,-59.7739327142153,0.904541015625,-0.506103515625,0.009033203125,-7,-43,-4,1.0365407933287472,43.749285708454714
-27.05698552502459,-61.10018275626154,0.895263671875,-0.468994140625,0.0419921875,-1,-16,4,1.0115413436586391,16.522711641858304
-27.91047758247416,-60.28991765629047,0.9013671875,-0.489501953125,0.009765625,1,-4,-12,1.0257535455685691,12.68857754044952
-27.450146719937557,-60.72896943202144,0.889892578125,-0.474365234375,-0.0107421875,6,-5,-8,1.0084872685254351,11.180339887498949
-28.922544227525457,-59.22996986720837,0.86865234375,-0.49267578125,-0.00341796875,6,2,-10,0.99864808728753,11.832159566199232
-30.84207357190318,-56.78264090196622,0.882080078125,-0.5439453125,0.084228515625,11,21,-2,1.039728911813132,23.790754506740637
-28.685047692018422,-59.41737360231286,0.865234375,-0.48583984375,-0.010009765625,5,12,19,0.9923563235373333,23.021728866442675
-26.297185720607523,-61.92272987653195,0.838623046875,-0.424560546875,-0.00390625,0,-6,13,0.9399763462458882,14.317821063276353
-27.530782975875283,-60.73577888029472,0.855712890625,-0.45654296875,0.00732421875,-6,-10,12,0.969912201014687,16.73320053068151
-28.323304353702078,-59.895031168576345,0.888427734375,-0.489501953125,0.0166015625,-14,5,9,1.0144908147427096,17.378147196982766
-29.718979178386643,-58.148981237415335,0.899169921875,-0.52685546875,0.075927734375,-13,10,1,1.0449154292112814,16.431676725154983
-27.892507980951837,-60.28093587481649,0.879150390625,-0.475830078125,-0.0166015625,-12,12,8,0.99979762175251,18.76166303929372
-29.115289448624328,-59.02354550195273,0.86767578125,-0.49462890625,-0.014892578125,-9,17,-2,0.9988697638576705,19.339079605813716
-30.09812659863026,-57.89926868183516,0.85400390625,-0.5078125,0.05224609375,-8,12,4,0.9949501803400221,14.966629547095765
-26.089693290320785,-62.18126842050285,0.855712890625,-0.42724609375,-0.028564453125,-24,-5,2,0.9568697423310851,24.596747752497688
-30.44295508051037,-57.90805688616992,0.827880859375,-0.497314453125,-0.011474609375,-18,-16,4,0.965836450578883,24.413111231467404
-29.957166633716728,-58.399814617008786,0.8408203125,-0.49560546875,-0.00634765625,-14,-20,-2,0.9760347695176504,24.49489742783178
-29.374045170027966,-58.94542946749638,0.889404296875,-0.512939453125,-0.00927734375,-4,-23,-2,1.0267584696407148,23.430749027719962
-29.00057088105925,-59.160856902747646,0.881591796875,-0.501708984375,0.04248046875,1,-18,-7,1.015244104412877,19.339079605813716
-29.570837830683047,-58.631202545182994,0.88916015625,-0.518310546875,-0.00927734375,9,-12,-16,1.0292413106611304,21.93171219946131
-28.7980754914705,-59.225788831811855,0.927978515625,-0.525390625,0.034912109375,19,1,-3,1.066957491974484,19.261360284258224
-29.185262882356916,-58.85982736811486,0.8671875,-0.498779296875,-0.021484375,20,4,-4,1.0006280655251032,20.784609690826528
-28.796664764081807,-59.228604574313124,0.87353515625,-0.494873046875,0.0029296875,26,8,-3,1.0039778806312945,27.367864366808018
-28.943339857839316,-59.092550571848186,0.85009765625,-0.484619140625,0.0,27,5,-5,0.9785303963709338,27.910571473905726
-27.449969278146916,-60.60179117026014,0.885986328125,-0.474365234375,0.0107421875,27,0,-26,1.005042060712065,37.48332962798263
-30.730884268545964,-57.38806208131777,0.85400390625,-0.524169921875,0.00390625,33,-18,-12,1.0020439300139314,39.45883931389772
-25.38761120073653,-62.777830517015445,0.871826171875,-0.426513671875,-0.00390625,29,-24,-18,0.9705720195078646,41.72529209005013
-30.392812082896192,-57.19689072308353,0.888427734375,-0.542236328125,0.09033203125,47,-20,-7,1.0447410926229184,51.55579501860097
-27.415212896142496,-60.57611781180088,0.880859375,-0.472412109375,-0.0458984375,36,-24,-36,1.0005963752555118,56.28498911788115
-29.93770366856758,-58.18611920375463,0.846435546875,-0.505126953125,-0.00927734375,52,-39,-29,0.9857446134237721,71.17583859709698
-25.49579733686659,-62.562722839892714,0.8720703125,-0.43115234375,0.0244140625,53,-35,-27,0.97313669127863,69.01449123191448
-24.028223121077115,-63.98813574042864,0.89990234375,-0.41552734375,-0.03662109375,46,-31,-14,0.9918811956066715,57.21013896155121
-24.861607920729462,-63.17886575682119,0.898681640625,-0.429931640625,0.037353515625,32,-22,-12,0.9969278769983779,40.64480286580315
-23.36689117546203,-64.83372039864366,0.90869140625,-0.40380859375,0.013427734375,19,-24,0,0.9944655631189049,30.610455730027933
-24.915680502871602,-63.307460681032744,0.928466796875,-0.442138671875,0.021240234375,3,-16,5,1.0285856044214388,17.029386365926403
-26.606300329224254,-61.636332581922275,0.895263671875,-0.458251953125,0.015869140625,-13,-1,-3,1.0058547232807336,13.379088160259652
-28.35119206934142,-59.87308240516407,0.898681640625,-0.49658203125,-0.005615234375,-5,-2,1,1.0267686866153953,5.477225575051661
-27.602125266230804,-60.60927922130508,0.865234375,-0.4638671875,-0.029052734375,0,-16,-5,0.9821646260660506,16.76305461424021
-26.308664894358813,-61.946257010259146,0.885986328125,-0.448974609375,0.000732421875,2,-15,-6,0.9932524905227558,16.278820596099706
-27.202748959804598,-61.140702576460924,0.8740234375,-0.459716796875,0.022216796875,-8,-30,-2,0.9878006320567483,31.11269837220809
-28.473061302162048,-59.50911529744525,0.830078125,-0.46240234375,-0.078857421875,-12,-37,-7,0.9534485377270137,39.52214569073901
-27.435800072102086,-59.8948914266564,0.915283203125,-0.490234375,-0.13330078125,-18,-28,-11,1.0468248099067299,35.05709628591621
-27.00917599609059,-61.198801949133106,0.890380859375,-0.4638671875,0.048583984375,-19,-17,-25,1.0051424008160605,35.70714214271425
-26.59949071456553,-61.27609324657905,0.916748046875,-0.4736328125,0.076904296875,16,-29,-4,1.0347315078819364,33.36165463522455
-24.55028558238552,-63.667335364463646,0.916748046875,-0.430419921875,-0.00537109375,16,-22,2,1.0127769444670824,27.27636339397171
-25.635542186304427,-62.394559081199944,0.945068359375,-0.46533203125,0.011474609375,7,24,4,1.0534798383734327,25.317977802344327
-29.155972711918725,-58.35693794357258,0.8515625,-0.489501953125,0.093505859375,-5,25,0,0.9866682316041684,25.495097567963924
-28.693538151365914,-59.44418942739179,0.863525390625,-0.484130859375,-0.00341796875,-4,15,8,0.9899850866369709,17.46424919657298
-25.560500989593628,-62.18335152664553,0.88427734375,-0.433837890625,-0.078125,-11,12,13,0.9880613602588177,20.83266665599966
-26.315983871131117,-61.83682375754716,0.931640625,-0.470458984375,-0.007568359375,-16,23,14,1.0437160486421468,31.32091952673165
-25.757294984708974,-62.45122498910052,0.9208984375,-0.45263671875,0.024658203125,-27,15,3,1.0264219202316667,31.0322412983658
-28.119744348085682,-60.1068590272785,0.8935546875,-0.48779296875,0.014892578125,-17,7,13,1.0181373919065984,22.516660498395403
-27.589474098539746,-60.55793567458871,0.849365234375,-0.453857421875,-0.032958984375,-14,7,4,0.9635840157489911,16.15549442140351
-26.93885946883843,-61.21435927182812,0.879638671875,-0.45703125,0.0234375,-12,12,4,0.9915599189866573,17.435595774162696
-25.52285684018277,-62.70231027888063,0.904052734375,-0.44091796875,0.01171875,-13,4,1,1.005911194290581,13.638181696985855
-29.11969863258679,-59.107193938909894,0.826171875,-0.471923828125,-0.0234375,-1,-14,6,0.9517464909309727,15.264337522473747
-29.242124769070692,-58.94073604403558,0.84326171875,-0.484130859375,-0.0478515625,-7,-23,9,0.9735310921290966,25.67099530598687
-28.10501678868741,-60.081886052243775,0.873779296875,-0.477294921875,-0.052734375,-19,-18,4,0.9970364167881093,26.476404589747453
-27.180428501592043,-61.0406587341348,0.938720703125,-0.492431640625,0.04833984375,-21,-14,4,1.0611419413339094,25.553864678361276
-28.67126347450821,-59.62332864983309,0.87255859375,-0.488525390625,-0.03466796875,-10,-27,9,1.0006085272820422,30.166206257996713
-26.98671052103433,-60.36123829197207,0.864990234375,-0.45458984375,-0.11572265625,-8,-11,3,0.9839978479520789,13.92838827718412
-29.991235137796696,-57.58342559763192,0.87646484375,-0.52099609375,-0.1044921875,-14,5,-1,1.0249615452693852,14.89966442575134
-29.32404843017813,-58.873356085423325,0.88037109375,-0.50634765625,-0.00048828125,-7,6,-4,1.015599059727321,10.04987562112089
-28.345690278815937,-59.37826982039111,0.859130859375,-0.47900390625,-0.073974609375,22,-2,-19,0.9864191900836929,29.13760456866693
-27.15198527043352,-60.71043262536708,0.888916015625,-0.47119140625,-0.04296875,35,7,-23,1.0069952023892865,42.46174749112429
-28.706464195049485,-59.23890160770065,0.8740234375,-0.495361328125,-0.028076171875,44,-4,-17,1.0050313856433712,47.3392015141785
-27.935702149324868,-59.296632539448,0.867919921875,-0.480224609375,0.1083984375,49,-12,-12,0.9978230742417811,51.85556864985669
-24.0788460358114,-63.89220050220397,0.888671875,-0.410888671875,-0.03369140625,42,-15,1,0.9796439725463122,44.609416046390926
-23.382554681539343,-64.69081732019272,0.922607421875,-0.410400390625,-0.03125,18,-9,-4,1.0102521952581873,20.518284528683193
-24.578489414933888,-63.61540796802245,0.90283203125,-0.423583984375,0.00927734375,7,-9,-2,0.9973039344036786,11.575836902790225
-26.52366722815938,-61.63033513716908,0.9111328125,-0.465576171875,0.023681640625,-5,5,-3,1.023467143554023,7.681145747868608
-23.52852258815441,-64.57244363607386,0.96435546875,-0.429931640625,0.00146484375,0,18,6,1.0558526561437198,18.973665961010276
-23.461076851272484,-64.6132795568877,0.905029296875,-0.402587890625,0.05029296875,-2,-14,23,0.9918086612777851,27.0
-23.41735631691167,-64.79540768850582,0.877197265625,-0.386962890625,-0.033935546875,-25,1,23,0.9593575677934364,33.98529093593286
-25.587921274740612,-62.651324073231265,0.922607421875,-0.44873046875,-0.041748046875,-43,9,36,1.0267942286073224,56.79788728465171
-36.16980298696006,-51.696510306032216,0.92041015625,-0.689697265625,0.112548828125,-57,11,49,1.1556402609164593,75.9670981412348
-25.13038354032093,-62.78959963177493,0.837158203125,-0.398193359375,-0.090087890625,-70,-12,39,0.931400900014107,81.02468759581859
-27.54727119228601,-60.618993792272036,0.89599609375,-0.4765625,-0.063720703125,-36,-13,20,1.0168486339806202,43.18564576337837
-26.553602030538563,-61.28844250198916,0.921142578125,-0.47021484375,-0.10107421875,-42,-20,11,1.0391446704927718,47.80167361086848
-26.429507619830115,-61.035814904249165,0.90185546875,-0.459228515625,-0.12158203125,-42,-10,11,1.0193214931513508,44.553338819890925
-29.13332262361257,-59.14590794269036,0.888916015625,-0.5048828125,-0.047119140625,-37,-9,1,1.0233760553216857,38.09199390948182
-28.855744997134007,-59.58591090739687,0.847900390625,-0.47509765625,0.025390625,-42,-18,-3,0.9722641303854428,45.79301256742124
-30.024958182565385,-58.566713498964255,0.8525390625,-0.5,0.0068359375,-53,-29,-20,0.9883671297295772,63.63961030678928
-29.53726155192491,-57.859824562560554,0.81494140625,-0.47314453125,-0.130126953125,-66,-17,30,0.9512771767482419,74.46475676452586
-29.95693769007915,-57.557023952071184,0.8544921875,-0.504150390625,-0.118896484375,-57,11,26,0.9992301480953274,63.608175575157006
-29.699690168270223,-57.81783712639351,0.85498046875,-0.49951171875,-0.10791015625,-45,29,-12,0.996066343641049,54.86346689738081
-29.896017992903456,-57.667461449899015,0.87548828125,-0.517822265625,-0.095703125,-14,28,-2,1.0216548915939534,31.368774282716245
-28.185705416130713,-59.38800024616795,0.870361328125,-0.480712890625,-0.08642578125,3,22,-18,0.9980396486980013,28.583211855912904
-29.814335104322627,-58.28857807074578,0.831787109375,-0.488525390625,-0.010009765625,-3,20,-18,0.9646901305681501,27.073972741361768
-29.992147201751756,-58.09552315267052,0.793212890625,-0.46923828125,-0.03662109375,-8,9,-43,0.9223406957039078,44.654227123532216
-30.73451900077998,-57.24499732111853,0.8466796875,-0.516357421875,-0.05224609375,-10,18,-19,0.9930866702673177,28.0178514522438
-28.79907912516882,-59.15930305503024,0.89990234375,-0.50830078125,-0.05712890625,1,6,-6,1.0351123728539935,8.54400374531753
-27.01961799785912,-61.087412838290604,0.899658203125,-0.470458984375,-0.02880859375,1,5,-8,1.0156507635516812,9.486832980505138
-27.401447073118813,-60.77980183704982,0.93505859375,-0.496337890625,-0.001708984375,-4,6,-2,1.0586258999492673,7.483314773547883
-25.44098522769254,-62.43114581780963,0.92626953125,-0.451904296875,-0.07177734375,-8,3,-11,1.0331237704805696,13.92838827718412
-26.755298717992574,-61.133380951633626,0.8701171875,-0.449951171875,-0.0625,-7,12,-26,0.9815631548986524,29.478805945967352
-28.720566288602885,-59.17386671152768,0.85302734375,-0.4794921875,-0.055419921875,-7,25,-13,0.9801223264467283,29.03446228191595
-27.532225283896437,-60.38156013642446,0.91015625,-0.486572265625,-0.056884765625,-6,21,-16,1.0336212292951994,27.073972741361768
-26.40163170528249,-61.56005360292611,0.904052734375,-0.460205078125,-0.05908203125,-6,5,-34,1.0161647242841967,34.88552708502482
-27.82804689458648,-60.109183815224775,0.8583984375,-0.465087890625,-0.05859375,-4,7,-34,0.9780530921414828,34.942810419312295
-30.46783880755411,-57.80837270028476,0.887939453125,-0.53369140625,0.000244140625,-20,3,-47,1.0359840969463148,51.16639522186413
-26.409515068452972,-61.88421901112197,0.837646484375,-0.42431640625,0.01611328125,-21,-4,-7,0.9391249561327575,22.494443758403985
-30.58033969743568,-57.4991267632794,0.88720703125,-0.537841796875,-0.044921875,-6,5,3,1.0384739234177636,8.366600265340756
-27.310228082880663,-60.29914621771961,0.868408203125,-0.461181640625,-0.0966796875,-12,-1,-1,0.9880122847816496,12.083045973594572
-27.78953688845355,-59.750627513648304,0.890625,-0.48388671875,-0.106689453125,-6,-10,-25,1.0191868752175692,27.586228448267445
-25.348394544311255,-62.863829375460355,0.881591796875,-0.427490234375,-0.019287109375,-4,-6,-27,0.9799612183098507,27.94637722496424
-26.50186194475334,-61.14544453069795,0.838134765625,-0.4306640625,-0.085693359375,3,-7,-15,0.9461948910870585,16.822603841260722
-26.20430182905053,-61.64323580157761,0.878662109375,-0.443603515625,-0.06884765625,-8,9,-5,0.9866971071698256,13.038404810405298
-24.35305749604645,-63.46948573125443,0.8994140625,-0.4169921875,-0.072265625,-13,9,-7,0.9940072740254116,17.291616465790582
-25.108218298748472,-63.074544311608506,0.9111328125,-0.43603515625,-0.027099609375,-15,6,-21,1.0104573461202604,26.49528259898354
-25.902974665117647,-62.20270524489923,0.891357421875,-0.442138671875,-0.057861328125,-23,-8,-33,0.9966707540564359,41.012193308819754
-28.548527795351756,-59.83837749972413,0.889892578125,-0.49267578125,-0.02001953125,-37,-8,-29,1.017368668508976,47.686476070265456
-23.359646971169894,-64.64823311197026,0.89697265625,-0.393798828125,-0.074951171875,-45,-8,-38,0.9824739901179266,59.43904440685432
-28.49297361813286,-59.72629778940225,0.90673828125,-0.502197265625,-0.050048828125,-30,-7,-46,1.037728909437391,55.362442142665635
-27.76939699701688,-60.52809215411586,0.861328125,-0.4619140625,-0.03955078125,-35,-9,-50,0.9781692104890416,61.69278726074872
-26.36603106665803,-61.607699093106554,0.869140625,-0.440673828125,-0.0673828125,-21,-2,-8,0.9768005386158132,22.561028345356956
-26.41217269844237,-61.79185061906789,0.902587890625,-0.4580078125,0.005126953125,-13,10,-20,1.0121572715059,25.865034312755125
-28.329962783171332,-59.857913397897164,0.91650390625,-0.506103515625,0.033447265625,-7,-6,-39,1.0474917175220446,40.07492981902776
-27.054919321717914,-61.29303530580079,0.86279296875,-0.449951171875,-0.02197265625,-18,-21,-31,0.9733193523293395,41.54515615568198
-28.252609502925566,-59.59982208082626,0.900634765625,-0.497314453125,-0.087646484375,-11,-17,-2,1.0325437291285602,20.346989949375804
-26.553588062142698,-61.48049947289203,0.851806640625,-0.435791015625,-0.064697265625,-17,-15,-37,0.9589964017094479,43.393547907494266
-24.28610018330218,-63.247942211406475,0.890869140625,-0.41455078125,-0.100830078125,3,-24,-33,0.9877585133055574,40.91454509095757
-18.68143517301946,-67.65557308731923,0.89892578125,-0.316650390625,-0.1416015625,21,-26,-16,0.963527909601652,37.05401462729781
-28.829060827807876,-56.81216550047364,0.84814453125,-0.494140625,-0.1962890625,29,-9,8,1.0010262230440328,31.400636936215164
-24.232904202548504,-63.58013434214774,0.90380859375,-0.417236328125,-0.07470703125,-8,1,-3,0.9982671326662887,8.602325267042627
-21.497160551981253,-66.214325611632,0.938232421875,-0.379638671875,-0.08935546875,-3,-26,-22,1.016065941972259,34.19064199455752
-20.700222575935488,-66.54564027457599,0.949462890625,-0.370361328125,-0.11767578125,4,-31,-32,1.0259117328197842,44.73253849269008
-25.326364631689454,-62.931391715130026,0.847412109375,-0.4111328125,0.005126953125,4,-18,-21,0.9418937085881257,27.94637722496424
-27.48704282135381,-60.29392663801792,0.9169921875,-0.491943359375,-0.08447265625,9,-15,-8,1.044039544472874,19.235384061671343
-23.21474471452466,-65.03128480451025,0.92431640625,-0.40478515625,-0.02490234375,-13,-8,-8,1.0093720663400068,17.233687939614086
-25.482208585858544,-62.08712634365116,0.93603515625,-0.459716796875,-0.104736328125,-1,-16,-6,1.0480796942475699,17.11724276862369
-24.620779373246314,-62.79276317881848,0.917724609375,-0.43408203125,-0.111572265625,2,-19,-3,1.021319753536236,19.339079605813716
-25.031611678227414,-62.11873691154824,0.897705078125,-0.434326171875,-0.121337890625,11,-10,-4,1.0046076421012975,15.394804318340652
-23.755084127188464,-63.9273949919224,0.9130859375,-0.413818359375,-0.079833984375,8,0,1,1.0056565163500202,8.06225774829855
-23.724384204832333,-64.137935773263,0.92724609375,-0.4189453125,-0.064453125,7,-1,0,1.0195365116378237,7.0710678118654755
-22.48708257892607,-64.36687234078283,0.927490234375,-0.39794921875,-0.13671875,7,-15,2,1.0184761814427916,16.673332000533065
-23.518711878551645,-63.87615870993048,0.92138671875,-0.413818359375,-0.107177734375,5,-12,4,1.0157195414042532,13.601470508735444
-20.870087800057505,-66.03822301403726,0.9296875,-0.3662109375,-0.126953125,1,-2,7,1.007246938118029,7.3484692283495345
-20.344932962485252,-66.78069908737545,0.9443359375,-0.360107421875,-0.11669921875,-10,4,-1,1.017382143444794,10.816653826391969
-24.102438972610702,-63.893817118269496,0.948486328125,-0.43505859375,-0.062255859375,-4,-10,8,1.0453602664451584,13.416407864998739
-21.521983092450927,-66.66150612913125,0.946533203125,-0.38134765625,0.027587890625,-9,-2,-1,1.0208389840002083,9.273618495495704
-26.84700513629376,-60.00500084904722,0.85986328125,-0.449462890625,-0.140625,-25,14,11,0.980386221402564,30.692018506445613
-22.413974339178033,-64.90605373276154,0.96630859375,-0.406982421875,-0.11279296875,-38,34,18,1.0545659030472119,54.0740233383831
-26.968657719405407,-61.125064575914294,0.907470703125,-0.47021484375,-0.048828125,-36,24,0,1.0232249323115785,43.266615305567875
-27.370391652478844,-60.7560674567257,0.855712890625,-0.451904296875,-0.037109375,-26,19,-9,0.9684209572436834,33.436506994600975
-25.85620378558071,-61.54040988086932,0.8984375,-0.4482421875,-0.109375,-11,6,-2,1.00998707451434,12.68857754044952
-23.27292602908731,-63.01979095610466,0.8759765625,-0.39111328125,-0.157958984375,-9,-2,-10,0.9722425507887625,13.601470508735444
-27.262366425148592,-60.000212125452904,0.837890625,-0.445556640625,-0.111083984375,-8,12,-16,0.9554690319694047,21.540659228538015
-25.907640110184158,-60.73850736450916,0.90966796875,-0.458251953125,-0.153564453125,-8,10,-4,1.030083835023251,13.416407864998739
-23.476450767032052,-62.833868283440665,0.931396484375,-0.420166015625,-0.165283203125,-5,6,-17,1.0350639733985323,18.708286933869708
-21.876404393022074,-66.08432382018337,0.9423828125,-0.38916015625,-0.0234375,18,20,-21,1.0198432766431245,34.132096331752024
-26.970773520532614,-60.23352564354551,0.751708984375,-0.397216796875,0.088134765625,31,24,-18,0.8547603862027666,43.139309220245984
-24.58753092121426,-62.30348198840858,0.949462890625,-0.451171875,-0.12744140625,22,31,0,1.0589037508158963,38.01315561749642
-22.472349987022334,-65.13923231099933,0.95703125,-0.406494140625,-0.083251953125,-3,20,3,1.0431093842632932,20.445048300260872
-25.074649586415223,-62.98766854481233,0.90087890625,-0.432861328125,-0.037109375,8,-2,10,1.0001644058979633,12.96148139681572
-24.472952529619793,-63.117043942439714,0.8603515625,-0.40380859375,-0.079345703125,12,8,-2,0.9537095638017606,14.560219778561036
-25.822306495946556,-61.86704296472745,0.921142578125,-0.459716796875,-0.076904296875,15,8,3,1.0323552941897571,17.26267650163207
-20.704135128643937,-66.56026807631326,0.9423828125,-0.3681640625,-0.106689453125,14,-9,-1,1.0173557792729275,16.673332000533065
-22.315234986013678,-65.28364822047068,0.935302734375,-0.396484375,-0.08154296875,21,-2,-7,1.019137046869093,22.22611077089287
-26.280214854291888,-61.72462570305707,0.890625,-0.4521484375,-0.008544921875,16,21,-2,0.9988614097303696,26.476404589747453
-23.36200489241296,-64.49685239980649,0.95263671875,-0.423095703125,-0.050048828125,12,20,7,1.0435667573808063,24.351591323771842
-24.15974411271436,-63.946371146984866,0.884765625,-0.40771484375,0.003662109375,14,3,3,0.9741945473265604,14.628738838327793
-23.332358242276136,-64.3185756026116,0.87158203125,-0.38818359375,-0.07373046875,21,-2,5,0.9569628632693307,21.6794833886788
-23.659769863523774,-63.73786852353747,0.892578125,-0.403564453125,-0.099853515625,7,-1,2,0.9846475012090713,7.3484692283495345
-24.744061887610133,-63.48244410149843,0.899169921875,-0.42333984375,-0.017578125,-12,0,9,0.9939980695099381,15.0
-25.20383845911991,-62.112938260059295,0.909912109375,-0.44091796875,-0.117919921875,-14,-2,6,1.0179655249215929,15.362291495737216
-26.01442073529227,-61.495154224789246,0.897705078125,-0.4501953125,-0.10302734375,-16,7,5,1.0095369533843552,18.16590212458495
-23.7766617186228,-63.44703063307802,0.938720703125,-0.425537109375,-0.1201171875,-14,9,-7,1.0376447025179838,18.05547008526779
-21.468492231871494,-64.19505093430587,1.007568359375,-0.412841796875,-0.199462890625,-6,7,-12,1.1069859045159918,15.132745950421556
-22.085994322281753,-65.70909024090132,0.984130859375,-0.41015625,0.060302734375,6,23,-32,1.067884880294379,39.8622628559895
-25.344949107402808,-62.698525330744864,0.896240234375,-0.436767578125,0.008544921875,20,9,-17,0.9970383596951438,27.748873851023216
-26.845826388731886,-60.44947182523317,0.91796875,-0.481689453125,-0.109130859375,22,9,-6,1.0424015059929403,24.515301344262525
-25.19598152272041,-62.76302816983414,0.8671875,-0.419189453125,-0.02685546875,12,24,0,0.9635637882202033,26.832815729997478
-24.383609041259245,-62.96878769666494,0.900146484375,-0.421875,-0.094970703125,18,19,2,0.9986298830946974,26.248809496813376
-22.90346160854716,-64.96778261161425,0.904052734375,-0.392578125,-0.0546875,9,8,1,0.9871269692474621,12.083045973594572
-22.246159805065847,-65.79019750422918,0.952880859375,-0.399658203125,-0.041748046875,3,2,-7,1.0341428870838978,7.874007874011811
-20.940634281162872,-67.08162909927756,0.97314453125,-0.38134765625,-0.05029296875,-3,-2,-8,1.04640608576921,8.774964387392123
-24.907584568336258,-63.22254137362673,0.929931640625,-0.44287109375,-0.021240234375,5,1,-9,1.0302226989690775,10.344080432788601
-23.622425976917796,-64.20566576264287,0.912109375,-0.409423828125,-0.052978515625,3,28,-12,1.0011883469743585,30.610455730027933
-30.90672776370709,-57.00218911661069,0.809814453125,-0.499267578125,-0.01708984375,19,35,-1,0.9515038758808843,39.83716857408418
-23.650676061018494,-63.968846775591786,0.90087890625,-0.40673828125,-0.056396484375,21,46,3,0.9900501990355136,50.65570056765576
-22.471005461919876,-65.3358351296224,0.88916015625,-0.379150390625,-0.044921875,24,20,8,0.9676666662788019,32.2490309931942
-22.101928113276934,-65.92078895302954,0.914306640625,-0.381591796875,-0.03125,14,4,4,0.9912343290227917,15.0996688705415
-22.870552792762407,-65.01581431617824,0.907470703125,-0.393310546875,-0.060791015625,6,-3,-1,0.99090454176677,6.782329983125268
-23.07951554260331,-64.94524641018427,0.948974609375,-0.41455078125,-0.048828125,0,-1,-1,1.0367204759550352,1.4142135623730951
-22.95833013587449,-65.17343803369815,0.94091796875,-0.407958984375,-0.028076171875,-3,3,3,1.0259363665822856,5.196152422706632
-23.383435820395352,-64.723043421611,0.90234375,-0.399658203125,0.00146484375,2,15,6,0.9868906060229665,16.278820596099706
