AngleX,AngleY,accelx,accely,accelz,gyrox,gyroy,gyroz,totAcc,totGyr
-3.00069517003011,-5.888003827924944,0.101318359375,-0.052001953125,0.96142578125,3,0,-1,0.9681472749160787,3.1622776601683795
-2.3950108208066614,-5.733557710209872,0.0986328125,-0.04150390625,0.962646484375,2,-1,-1,0.9685758926461138,2.449489742783178
-2.192795676757306,-5.7075920474623265,0.09814453125,-0.0380859375,0.96240234375,3,-1,-1,0.9681431500067691,3.3166247903554
-2.1023005090522173,-6.2487863569610145,0.10791015625,-0.036865234375,0.9658203125,5,-1,-1,0.9725289318909853,5.196152422706632
-2.1712418243854192,-5.990998321742083,0.103515625,-0.037841796875,0.965087890625,3,1,0,0.9713609642356859,3.1622776601683795
-2.334311623732904,-5.960004173142901,0.10302734375,-0.04052734375,0.9638671875,2,3,-2,0.9702046455726604,4.123105625617661
-1.956828108621514,-5.944164577337893,0.10205078125,-0.03369140625,0.95751953125,1,3,-1,0.9635315903145354,3.3166247903554
-1.9395733509677633,-5.8397112445286155,0.100341796875,-0.033447265625,0.959228515625,1,2,-1,0.9650422482803713,2.449489742783178
-2.270979114624444,-5.581346258635698,0.09619140625,-0.0390625,0.9638671875,-2,0,-2,0.9694424277293432,2.8284271247461903
-2.445758334033577,-5.771329709275063,0.099365234375,-0.0419921875,0.96337890625,-3,-1,0,0.9693996650612585,3.1622776601683795
-2.45838676949966,-5.696640749681094,0.09814453125,-0.042236328125,0.964111328125,-3,-1,-1,0.9700138707496487,3.3166247903554
-2.4186312290270218,-5.921431325458946,0.101806640625,-0.04150390625,0.962646484375,-3,-2,-1,0.96890423685156,3.7416573867739413
-2.6059036831898035,-6.352580669884625,0.109619140625,-0.044921875,0.9638671875,-2,0,-2,0.9711201192355348,2.8284271247461903
-2.1350726624474246,-6.220302476290297,0.107666015625,-0.036865234375,0.966552734375,-2,1,-1,0.9732292662851214,2.449489742783178
-2.649204868574189,-6.2161397261330675,0.108154296875,-0.046142578125,0.970458984375,0,2,-2,0.9775567143663347,2.8284271247461903
-2.312494102987951,-5.784646846175246,0.1005859375,-0.0400390625,0.9697265625,-2,3,-2,0.9757511277814129,4.123105625617661
-2.499218552519998,-5.583300521714802,0.0966796875,-0.043212890625,0.966552734375,-1,2,-2,0.972336620836146,3.0
-2.3176161978997936,-5.627059052247088,0.0966796875,-0.039794921875,0.9599609375,-1,1,-2,0.9656374057108672,2.449489742783178
-2.062786606612922,-5.893683425981425,0.101806640625,-0.03564453125,0.9658203125,-1,0,-2,0.9718250875136831,2.23606797749979
-2.511326519538192,-5.9623973820817575,0.1025390625,-0.043212890625,0.961181640625,-1,0,-1,0.9676010332410325,1.4142135623730951
-2.5108799633045757,-5.8236067518537125,0.100830078125,-0.04345703125,0.967041015625,-1,1,-1,0.9732541004900974,1.7320508075688772
-2.4366568498097734,-5.974686453751274,0.103759765625,-0.042236328125,0.96826171875,-1,3,-1,0.974720858693781,3.3166247903554
-2.3146569750704917,-5.669245832200835,0.097900390625,-0.039794921875,0.963134765625,-2,3,-2,0.9689152176775265,4.123105625617661
-2.7988376217966398,-5.764278127772037,0.099853515625,-0.04833984375,0.966552734375,-2,2,-1,0.9728985833087824,3.0
-2.677394857866813,-5.534798420802551,0.095703125,-0.046142578125,0.965087890625,-2,2,-1,0.9709185662463147,3.0
-1.8387634375266806,-5.596139711181808,0.0966796875,-0.03173828125,0.965576171875,-1,1,-1,0.9709230783973473,1.7320508075688772
-2.3480194390659346,-5.708220811109014,0.097900390625,-0.040283203125,0.958984375,-1,0,-2,0.9648099576769915,2.23606797749979
-2.3834994817017696,-5.860492873449963,0.101318359375,-0.041259765625,0.96728515625,-1,-1,-1,0.9734517716391802,1.7320508075688772
-1.8140915834566718,-5.772646941287572,0.099853515625,-0.031494140625,0.96826171875,0,-1,-1,0.9739062385430558,1.4142135623730951
-2.64036792761339,-5.750580590286119,0.09912109375,-0.045654296875,0.96435546875,0,-1,-1,0.9705105749848268,1.4142135623730951
-2.348542832116795,-6.038124515921046,0.10400390625,-0.04052734375,0.9619140625,0,1,-1,0.9683687013436274,1.4142135623730951
-2.603820225294985,-5.816816351326538,0.100830078125,-0.045166015625,0.96728515625,0,2,-1,0.9735744692234479,2.23606797749979
-2.664329149230001,-5.663173760766923,0.099853515625,-0.046875,0.983154296875,-1,3,-1,0.9893231836318442,3.3166247903554
-2.544682573819055,-5.662817292270712,0.09765625,-0.043701171875,0.961669921875,-2,3,-1,0.967603004452952,3.7416573867739413
-2.447140807033997,-5.85351260772855,0.1005859375,-0.041748046875,0.958984375,-4,2,-2,0.965148414356451,4.898979485566356
-2.5795034675749835,-5.679440958252422,0.097900390625,-0.044189453125,0.962890625,-4,1,-1,0.9688630191956471,4.242640687119285
-2.423327587938432,-5.8054546366260285,0.099609375,-0.041259765625,0.959228515625,-5,0,-2,0.965268740318188,5.385164807134504
-2.5282392000088603,-5.825317321886231,0.101318359375,-0.043701171875,0.971435546875,-4,1,-1,0.9776820669839558,4.242640687119285
-2.836197360222237,-5.922219531080444,0.101318359375,-0.048095703125,0.95361328125,-5,3,-1,0.960185865747836,5.916079783099616
-3.4891232175440168,-5.661548286588978,0.097900390625,-0.059814453125,0.962646484375,-5,4,-2,0.9694588744071186,6.708203932499369
-2.8471092052440152,-5.503820992514062,0.09423828125,-0.04833984375,0.953857421875,-4,4,-1,0.9597195295568128,5.744562646538029
-2.9596582086103767,-5.64186249973796,0.096923828125,-0.05078125,0.960205078125,-2,0,-1,0.9664195547830168,2.23606797749979
-2.806573683860097,-4.961945581077525,0.08544921875,-0.04833984375,0.96533203125,-2,-2,-3,0.970311413947095,4.123105625617661
-2.7129625239362696,-5.817060295420088,0.101318359375,-0.047607421875,0.976806640625,1,-4,0,0.9832004321261885,4.123105625617661
-2.823798006311789,-5.660634766763761,0.09716796875,-0.048828125,0.961181640625,2,-2,-1,0.9673137785726942,3.0
-2.7759017319085486,-5.878029164268527,0.10107421875,-0.048095703125,0.9609375,3,0,-1,0.9674347901854993,3.1622776601683795
-2.5196704826614282,-6.056346086306341,0.104736328125,-0.043701171875,0.96484375,1,2,-1,0.9714952149992394,2.449489742783178
-2.4070624739925934,-5.532688711737297,0.09619140625,-0.0419921875,0.971435546875,1,1,-2,0.9770891219227231,2.449489742783178
-2.5183311322594886,-5.909902380156498,0.101806640625,-0.043212890625,0.96044921875,-2,3,-1,0.9667960735279191,3.7416573867739413
-2.327516519493517,-5.649579388978721,0.097412109375,-0.0400390625,0.961669921875,-1,3,-3,0.9674199110096062,4.358898943540674
-2.765715117027117,-4.598071219595787,0.0791015625,-0.04736328125,0.9638671875,-4,-1,-1,0.9682666434096902,4.242640687119285
-2.451566279030408,-5.451139377239822,0.09375,-0.0419921875,0.963623046875,-4,-2,-2,0.9690829596993714,4.898979485566356
-2.751240310200071,-6.043939321703684,0.104736328125,-0.047607421875,0.971435546875,-4,-4,-1,0.9782245073494235,5.744562646538029
-2.814383984343709,-6.228977764293848,0.109375,-0.04931640625,0.983154296875,-4,-3,-1,0.9904480652786347,5.0990195135927845
-3.0114492159823443,-5.797905547134663,0.099609375,-0.051513671875,0.961669921875,-5,-2,-2,0.9681863067700371,5.744562646538029
-3.0263543250342546,-6.117941712105166,0.10498046875,-0.0517578125,0.959228515625,-4,-1,-2,0.9663431663554597,4.58257569495584
-3.286350255262718,-5.989631985143108,0.10302734375,-0.056396484375,0.960693359375,-3,0,-2,0.9678465414296128,3.605551275463989
-3.279659238480555,-6.258410688365025,0.108154296875,-0.056640625,0.96484375,-2,0,-2,0.9725373896395854,2.8284271247461903
-3.1552889264282844,-5.772559832302161,0.09912109375,-0.05419921875,0.957763671875,0,2,-2,0.9644033376667613,2.8284271247461903
-3.0980041711028017,-5.562920443754456,0.09619140625,-0.0537109375,0.965576171875,1,1,-2,0.9718410338817048,2.449489742783178
-2.792032214472971,-5.491577829024913,0.09423828125,-0.048095703125,0.961181640625,0,-2,-2,0.9669871749855884,2.8284271247461903
-2.7609737056073884,-5.525405535499314,0.095458984375,-0.048095703125,0.968505859375,2,-3,-2,0.9743865834465815,4.123105625617661
-2.7595077352553976,-6.279123493674315,0.108154296875,-0.0478515625,0.96435546875,1,-3,-2,0.9715804619660944,3.7416573867739413
-2.7353586188920476,-5.882416918185547,0.100830078125,-0.047119140625,0.958740234375,1,-1,-3,0.9651786130439081,3.3166247903554
-2.870377645170043,-6.12127918230693,0.104736328125,-0.04931640625,0.955810546875,1,0,-2,0.9627957248928816,2.23606797749979
-2.790755723831833,-5.960929864918171,0.103515625,-0.048583984375,0.96875,1,2,-2,0.9754754997727472,3.0
-2.46315052017701,-5.860384227976076,0.10107421875,-0.04248046875,0.961669921875,0,3,-2,0.967899595288794,3.605551275463989
-2.5773075170433413,-5.818754530889287,0.10107421875,-0.044677734375,0.968505859375,-1,3,-1,0.9747900785751326,3.3166247903554
-3.1932589983171265,-5.322730518049897,0.091796875,-0.054931640625,0.96142578125,-1,3,-2,0.9673591288935525,3.7416573867739413
-2.8547078688470475,-5.593650627485077,0.0966796875,-0.04931640625,0.967041015625,-2,-1,-2,0.9731122215867727,3.0
-3.135401091586826,-5.834605410551698,0.10009765625,-0.053955078125,0.9609375,-1,-3,-2,0.9676422738535496,3.7416573867739413
-3.0249096713027557,-6.01220549464369,0.10400390625,-0.052490234375,0.96875,-1,-3,-2,0.9757297780225841,3.7416573867739413
-3.1542638308753137,-6.13502165080233,0.106201171875,-0.0546875,0.967529296875,-1,-1,-2,0.9748755571227053,2.449489742783178
-2.9884304759026343,-6.042668917934703,0.10400390625,-0.051513671875,0.960693359375,0,1,-2,0.9676787698676286,2.23606797749979
-2.963471119424717,-6.225465520206204,0.107177734375,-0.051025390625,0.959228515625,0,3,-2,0.9665453959449255,3.605551275463989
-2.9218020881369604,-6.017646652390537,0.10400390625,-0.050537109375,0.96240234375,1,4,-1,0.9693240341571712,4.242640687119285
-3.5751537100645523,-5.683931923210062,0.097412109375,-0.06103515625,0.953125,-1,5,-1,0.9600321218461124,5.196152422706632
-2.8437372767964186,-5.737642165318581,0.098876953125,-0.049072265625,0.960693359375,1,3,-1,0.9670142035461924,3.3166247903554
-3.068437176483101,-5.733549350235326,0.10107421875,-0.05419921875,0.9833984375,1,2,1,0.9900636544619111,2.449489742783178
-2.289081629457617,-6.26173825747874,0.115966796875,-0.042724609375,1.033203125,3,2,3,1.0405683003693027,4.69041575982343
-1.5906403906030813,-8.392902132067944,0.15576171875,-0.03076171875,1.036376953125,11,-4,9,1.0484680182709756,14.7648230602334
-0.31472728668438305,-9.063866913873266,0.1630859375,-0.0078125,1.00537109375,23,-7,28,1.018542632546412,36.90528417449187
-2.0609603365053957,-11.091958716593265,0.185546875,-0.037841796875,0.931396484375,35,-12,44,0.9504520269424985,57.48912940721924
-4.25172746109656,-9.538125003056246,0.15185546875,-0.071533203125,0.888671875,39,-13,47,0.9043864129644034,62.44197306299666
-3.3277680960580605,-6.054998991409347,0.0986328125,-0.0576171875,0.9072265625,43,3,34,0.9143895273364829,54.89990892524322
-3.0751492532082803,-4.287414298272805,0.07666015625,-0.056884765625,0.979248046875,35,19,27,0.9838899295271741,48.11444689487763
-0.1449402838234904,-3.4671163149947706,0.063720703125,-0.005615234375,1.02197265625,33,6,28,1.0239726407412022,43.69210454990696
1.6206155644780198,-4.880530556910508,0.090576171875,0.02734375,1.049560546875,33,-10,42,1.0538164285738485,54.3415126767741
1.1163011422575901,-6.382215725113292,0.113037109375,0.0166015625,1.02001953125,42,-38,54,1.0263979949828268,78.2559901860554
3.6046646808286393,-6.917759038628717,0.111328125,0.057373046875,0.93115234375,35,-51,63,0.9395372824932786,88.28929719960398
1.35296085765573,-9.676199438422382,0.1552734375,0.0205078125,0.91015625,21,-39,56,0.9235338706190824,71.40028011149536
0.7027531075131541,-10.094260121967517,0.163818359375,0.01171875,0.9130859375,-2,-26,42,0.9277390329344417,49.4368283772331
0.9898610039040823,-8.882431885259304,0.146240234375,0.017333984375,0.927978515625,-10,-22,39,0.9395907612497827,45.880278987817846
0.5501755862745478,-7.930329768569045,0.1337890625,0.009765625,0.94921875,-5,-14,39,0.9586506746609174,41.737273509418415
-1.6028171378071938,-7.473092976770856,0.128662109375,-0.027099609375,0.9658203125,-9,-8,53,0.9747292974229818,54.35071296680477
-1.6373328528404698,-8.595539012106098,0.147705078125,-0.028564453125,0.95751953125,3,-1,49,0.9692658927309175,49.10193478876367
-1.0211478358571175,-7.260181219506268,0.127685546875,-0.01904296875,0.98388671875,11,-3,52,0.9923201644994537,53.23532661682466
-0.4007477888527109,-6.762614585481349,0.119140625,-0.00732421875,0.98876953125,2,-6,64,0.9959484517955903,64.31174076325411
-0.1181868065595477,-7.492544676374104,0.12646484375,-0.00146484375,0.943359375,-7,-2,68,0.9517995654928166,68.38859554048467
-0.20824365831293126,-8.278146467444385,0.132568359375,-0.002685546875,0.894287109375,-9,-3,69,0.9040636128413145,69.6491205974634
-1.3038603235130104,-8.202759802188398,0.140380859375,-0.021728515625,0.959716796875,-10,-10,82,0.9701727909368204,83.21057625085888
-1.0213527566668827,-7.529839094183008,0.12646484375,-0.0166015625,0.94287109375,-9,-9,98,0.9514593359736793,98.82307422864359
-1.6804910397373671,-7.744315779761404,0.12841796875,-0.028564453125,0.93017578125,5,-9,104,0.9394328537496728,104.5083728703112
-3.2189798047428213,-8.696770204058076,0.144775390625,-0.05419921875,0.91943359375,9,12,98,0.9323387808944621,99.14131328563285
-4.946356757895818,-5.803688286297981,0.107666015625,-0.0888671875,1.0009765625,-1,39,67,1.0106648438572696,77.5306391048081
-2.7945740359259177,-2.998465712119086,0.056640625,-0.04833984375,0.987548828125,-11,44,49,0.9903522549200491,66.76825593049439
-2.3283597203967474,-3.6707515560528963,0.06640625,-0.03955078125,0.95849609375,-4,43,41,0.961607412653707,59.54829972383762
-1.8444910795669158,-5.272894230744563,0.0908203125,-0.0302734375,0.92578125,-4,44,35,0.9307178589842502,56.36488268416781
0.3710766739966891,-4.928448049169926,0.081298828125,0.0068359375,0.892578125,-12,35,30,0.8962990230523058,47.634021455258214
-2.1374382259825326,-6.797571312665964,0.11083984375,-0.03369140625,0.88916015625,-6,33,32,0.8966751726685374,46.357307945997036
-2.1627380232059648,-7.006665535188534,0.11376953125,-0.033935546875,0.884521484375,-6,35,22,0.8924535752090993,41.773197148410844
-2.048721931259005,-7.537560006396955,0.135009765625,-0.035400390625,0.968505859375,-4,48,6,0.9785113306008405,48.53864439804639
-2.32548277792897,-5.4023162007207794,0.10107421875,-0.041015625,0.9921875,-4,60,-4,0.9981654744311254,60.266076693277455
-2.282170395005014,-4.344699300860474,0.0859375,-0.041015625,1.004150390625,0,91,-9,1.0086553139664365,91.44397191723465
-0.02211843277085609,-8.102109887269892,0.166748046875,-0.0009765625,1.0849609375,5,94,20,1.0977003692774374,96.23408959407264
-1.450050300957273,-5.298726653409298,0.100341796875,-0.024658203125,0.974609375,-8,94,26,0.9800713938378919,97.85703858180054
-4.938150822840464,-1.0584861567886832,0.025146484375,-0.078125,0.9091796875,-26,100,25,0.9128765335268618,106.30616162763097
-6.855620092866694,0.8138788582002909,-0.00439453125,-0.113037109375,0.951416015625,-44,114,3,0.958117495294034,122.23338332877806
-4.882566324684627,3.621688499297125,-0.058837890625,-0.088623046875,1.074951171875,-55,115,-22,1.0802018162019742,129.3599628942433
-3.8627838036159177,4.11673715719494,-0.070556640625,-0.06884765625,1.062255859375,-48,82,-16,1.0668203926078295,96.35351576356723
-6.582276212070518,5.857258687056199,-0.09326171875,-0.107666015625,0.931640625,-31,60,-9,0.9424669613600031,68.13222438758329
-3.7697724960040855,4.053949688453674,-0.06396484375,-0.061767578125,0.94775390625,-25,57,-7,0.9519160686507627,62.63385665915839
0.7827428454515216,-1.257060876480533,0.02587890625,0.015625,1.03076171875,-14,31,19,1.0312049162286565,38.961519477556315
-3.91965500924168,0.46574384893803084,-0.0087890625,-0.067138671875,0.972412109375,-10,-8,44,0.9747667204720855,45.8257569495584
-7.270189951552701,3.204774844020723,-0.054931640625,-0.118896484375,0.937255859375,-40,-11,46,0.9463627238386234,61.94352266379432
-9.888684786490819,1.5313688452759702,-0.0244140625,-0.155517578125,0.897216796875,-52,6,42,0.9109224687909803,67.11184694225007
-9.924929328838598,3.2455714949834644,-0.053466796875,-0.165771484375,0.9541015625,-57,31,27,0.9698704423606819,70.2780193232564
-7.302012850457985,1.5941344738013756,-0.02685546875,-0.1328125,1.034912109375,-28,31,41,1.0437449163895574,58.532042506647585
-9.763913682226173,0.5026722308530129,-0.009033203125,-0.18408203125,1.04736328125,1,6,61,1.0634555166524786,61.30252849597641
-6.960125638987796,3.2875986386438103,-0.05908203125,-0.1298828125,1.02197265625,26,15,62,1.0318858180642938,68.8839603971781
-5.460262474978621,1.9941957877548957,-0.032470703125,-0.093505859375,0.9150390625,52,3,64,0.9203771934374342,82.516664983505
-4.139836255930697,0.3915134475582904,-0.0087890625,-0.07177734375,0.9111328125,56,-30,75,0.9139979413048996,98.29038610159185
-1.1876244618490202,0.031013576795670076,-0.003662109375,-0.02392578125,0.903564453125,61,-40,81,0.9038885855040861,109.00458705944443
-1.201614078859666,0.22756511541360075,-0.007568359375,-0.025146484375,0.947021484375,59,-45,96,0.9473855168873333,121.33424908079334
-0.8592224791046883,-0.40858312646693407,0.002685546875,-0.02001953125,0.98291015625,58,-52,95,0.9831176781305924,122.85357137665962
-1.4765855799267982,-2.315933225406571,0.03662109375,-0.03125,0.97607421875,65,-43,92,0.977260736710459,120.57362895757927
-1.8057713829785402,-2.71617838467044,0.043701171875,-0.035888671875,0.94677734375,65,-26,96,0.9484646160139583,118.81498222025705
-0.28679711476312386,-3.715439431399986,0.061279296875,-0.01025390625,0.93212890625,67,-6,81,0.934197298586171,105.29007550571896
0.06456154475780754,-2.6646284457074967,0.044921875,-0.00390625,0.951171875,60,-3,80,0.9522400797244326,100.04498987955368
0.7693681475190662,-1.7477539788210077,0.03076171875,0.008056640625,0.993408203125,64,-2,69,0.9939170241195467,94.13288479590966
2.787591790594667,-0.8863211831052501,0.015380859375,0.043212890625,0.972412109375,60,0,67,0.9734933154420828,89.9388681271896
0.6145813585554125,-0.485918353948609,0.0078125,0.005859375,0.981689453125,57,-8,66,0.9817380250395226,87.5728268357257
-1.3554407213406756,0.34729954608438995,-0.0078125,-0.02880859375,0.9833984375,59,-20,51,0.9838513389265392,80.51086883148137
1.4569339945383037,-0.44522396195873293,0.00439453125,0.020263671875,1.008056640625,67,-41,45,1.0082698641786956,90.52623929005335
1.6255976887863268,1.8303048871550298,-0.037109375,0.023681640625,1.00830078125,63,-48,36,1.0092613097136651,87.0
2.215508230740443,1.4035244158281075,-0.029296875,0.032470703125,0.95751953125,64,-64,43,0.9585177651830024,100.20479030465559
0.7393296279142012,-2.7345954487468207,0.04296875,0.007080078125,0.97998046875,68,-56,43,0.980947582755719,98.02550688468793
0.7770728322379978,0.6338029401863904,-0.01416015625,0.009033203125,0.95263671875,50,-41,39,0.9527847745920841,75.51158851461145
0.42654442530099623,-0.8722326058118882,0.01123046875,0.0029296875,0.932373046875,51,-40,30,0.9324452825963373,71.42128534267638
1.287994590043098,-0.2464279176081849,-0.000732421875,0.018310546875,0.971923828125,47,-59,28,0.9720965694033793,80.46117075956576
2.512004822701106,-1.986352763779966,0.028076171875,0.04052734375,0.990234375,44,-81,18,0.9914609697059314,93.92017887546851
4.18246678554651,-4.529530693163318,0.073974609375,0.070556640625,0.990966796875,41,-73,16,0.9962257148242896,85.24083528450434
3.3095931703886077,-3.2004984613944267,0.05078125,0.054443359375,0.978271484375,39,-60,17,0.9811003576968381,73.55270219373317
4.172440896948825,-3.5209750838744562,0.056396484375,0.068115234375,0.9541015625,36,-44,15,0.9581910248842671,58.7962583843564
2.229449900143754,-3.88767959764555,0.062744140625,0.03466796875,0.96240234375,43,-48,26,0.9650683740002642,69.49100661236676
3.3769387638507444,-6.028505014920025,0.09912109375,0.054443359375,0.97216796875,51,-68,25,0.9787234696632817,88.60022573334675
3.225446788093857,-7.195136650522581,0.119140625,0.05029296875,0.970703125,69,-71,20,0.9792795454393218,101.00495037373169
5.529726250911694,-7.266091291999495,0.11669921875,0.08740234375,0.942138671875,76,-77,27,0.9533536355373291,111.50784725749125
6.425719489734724,-8.242340289189768,0.13232421875,0.100341796875,0.92578125,86,-65,32,0.9405578652690456,112.44998888394787
7.043344191954785,-7.540456570560994,0.12646484375,0.114501953125,0.954833984375,81,-41,33,0.9699546338317011,96.59710140578754
7.078907464714044,-8.585050149113375,0.14794921875,0.1181640625,0.97021484375,71,-31,17,0.9885183660550148,79.31582439841371
6.403381128824176,-9.718531054398943,0.166015625,0.105224609375,0.958984375,72,-31,11,0.978920036395416,79.1580697086532
9.714142854045564,-8.242889928003578,0.135986328125,0.156982421875,0.920654296875,67,-26,15,0.9437902820908156,73.41661937191061
9.154864946189003,-7.923041490152452,0.1328125,0.14990234375,0.9296875,54,-12,17,0.9510145742701545,57.87054518492115
9.959513649892466,-7.548333822868572,0.12890625,0.1669921875,0.939208984375,34,-2,14,0.9626093331699089,36.823905279043935
7.889674500703972,-7.333797609950331,0.134521484375,0.140625,0.99951171875,22,21,16,1.0182804605323783,34.36568055487916
7.356511240414068,-7.040499107266675,0.12646484375,0.1298828125,0.984619140625,10,14,12,1.0011681945471178,20.97617696340303
7.168836550850441,-6.537633236261757,0.115966796875,0.12890625,0.98876953125,-13,-8,17,1.0038577116279253,22.847319317591726
9.34716424972984,-7.187184252361917,0.123779296875,0.1640625,0.955322265625,-26,-12,23,0.9771788216288779,36.72873534441391
9.056403396763812,-7.1164984961939455,0.117919921875,0.15283203125,0.9228515625,-18,-16,18,0.9428243442761215,30.066592756745816
6.960830615298168,-7.028656316235786,0.11376953125,0.11474609375,0.908203125,-9,-18,13,0.9224657655065006,23.958297101421877
7.323637184338447,-5.43425823433433,0.088134765625,0.12060546875,0.90185546875,-22,-3,6,0.914142605132516,23.0
7.569343635745661,-8.005259731240342,0.134033203125,0.128173828125,0.9228515625,-21,3,-5,0.9413014587074939,21.79449471770337
7.898308109600306,-7.955279163103252,0.13037109375,0.132080078125,0.909912109375,-24,-10,-4,0.9286451506955384,26.30589287593181
7.710402797802745,-6.837468355259263,0.109375,0.126708984375,0.894287109375,-28,-15,-2,0.909817284591053,31.827660925679098
6.787546886904771,-6.0784063142873075,0.10107421875,0.115966796875,0.927001953125,-33,-6,-10,0.9396791562926865,35.0
5.165059881430362,-6.34924757608995,0.10986328125,0.09130859375,0.95458984375,-32,11,-11,0.9652196483962956,35.58089374931439
3.781521448024405,-6.867666006241292,0.120361328125,0.068115234375,0.962646484375,-32,20,-17,0.972530096367985,41.38840417314975
3.911037680707159,-6.382144163320805,0.114501953125,0.071044921875,0.981201171875,-25,25,-20,0.9904109338464201,40.620192023179804
6.08183024266516,-5.658270838830254,0.101806640625,0.1083984375,0.980712890625,-14,23,-14,0.9919236801114452,30.347981810987037
5.8864910119252984,-3.511936540360862,0.06396484375,0.106201171875,1.00244140625,-6,9,-6,1.0100786915424276,12.36931687685298
5.140273408597424,-4.252500185252849,0.075927734375,0.09228515625,1.012451171875,10,-14,-2,1.0194797429779898,17.320508075688775
4.565593725916328,-5.30425990373338,0.091064453125,0.079345703125,0.98046875,10,-25,0,0.9878802786542095,26.92582403567252
4.967943448076798,-7.210964777810632,0.12060546875,0.084228515625,0.948974609375,7,-29,-1,0.9603087686651788,29.8496231131986
6.162432255430725,-8.272796082456363,0.135986328125,0.10302734375,0.927734375,3,-31,-3,0.9432910396869788,31.28897569432403
6.043345738182098,-10.162995035664059,0.168212890625,0.10107421875,0.923095703125,3,-21,-4,0.9437251990893213,21.587033144922902
6.673062921425263,-10.0661579715659,0.1689453125,0.112548828125,0.929931640625,3,-10,-2,0.9518311896358186,10.63014581273465
6.445589861473538,-9.578067992008068,0.165771484375,0.111572265625,0.953125,-1,5,-3,0.9738458918707756,5.916079783099616
5.994714984473879,-9.621871351761342,0.1669921875,0.10400390625,0.9541015625,-3,10,-6,0.9741729798994814,12.041594578792296
6.584038547503679,-8.933615848697169,0.154541015625,0.1142578125,0.95068359375,-10,10,-2,0.9699160111334933,14.2828568570857
5.852781190323658,-7.2387001947016,0.12646484375,0.10205078125,0.9619140625,-7,12,-5,0.975544146768203,14.7648230602334
5.7505637923191415,-7.27021141124171,0.127197265625,0.1005859375,0.964111328125,-8,11,-5,0.9776539920770446,14.491376746189438
4.770060527603153,-7.398014926032299,0.12890625,0.08349609375,0.96240234375,-10,10,-6,0.9745802636089367,15.362291495737216
4.50386103813813,-7.145969596411104,0.12353515625,0.078125,0.9560546875,-8,9,-6,0.9671633863755568,13.45362404707371
5.065060355787659,-6.965241423421288,0.12060546875,0.08740234375,0.958251953125,-1,7,-5,0.9697585547203373,8.660254037844387
5.242096419370794,-7.572261316572371,0.13134765625,0.090576171875,0.961669921875,3,3,-5,0.9748155150350072,6.557438524302
5.313489797987517,-9.13568876259915,0.15673828125,0.090576171875,0.9482421875,7,4,-7,0.9653673797448922,10.677078252031311
4.093649593292501,-9.951464834298733,0.1640625,0.066650390625,0.907470703125,8,13,-12,0.9245873974410947,19.4164878389476
4.922169387011423,-9.076591218658336,0.157958984375,0.08447265625,0.95263671875,4,23,-18,0.9693314130417309,29.478805945967352
6.131166386375322,-7.948032084689305,0.14013671875,0.105712890625,0.959228515625,6,30,-24,0.9751578643350268,38.88444419044716
5.805864979823759,-8.37807710000459,0.14990234375,0.1015625,0.9736328125,7,31,-14,0.9903264651844125,34.72751070837067
7.472769898382615,-5.25838364811411,0.09521484375,0.132080078125,0.98486328125,4,21,-6,0.9982317848387515,22.20360331117452
8.24088372866495,-8.092763533251153,0.1455078125,0.146728515625,0.98583984375,6,9,10,1.0072646019398654,14.730919862656235
6.994218806455184,-5.5948010659543215,0.098876953125,0.122802734375,0.98095703125,7,0,17,0.993546103906645,18.384776310850235
5.427444508347323,-3.64520680086042,0.0615234375,0.09228515625,0.954345703125,5,-10,20,0.9607691733705105,22.9128784747792
4.784324124939825,-7.207204760147053,0.11865234375,0.078369140625,0.9189453125,9,-5,-14,0.929882029208755,17.378147196982766
6.303467683337069,-5.421933840815127,0.092041015625,0.10888671875,0.95947265625,-3,-18,10,0.9700080639710444,20.808652046684813
4.7638966455094405,-9.810255393710504,0.1611328125,0.07861328125,0.920654296875,10,-24,5,0.9379489141778737,26.476404589747453
4.647202946282439,-8.285087896419713,0.140380859375,0.078857421875,0.94384765625,3,-5,21,0.9574829903827291,21.79449471770337
4.887931759926553,-8.39106427683863,0.15234375,0.088134765625,1.0,1,13,27,1.0153700581934826,29.9833287011299
6.923480993208478,-9.441099429616376,0.166259765625,0.121826171875,0.96435546875,-7,14,28,0.98613660104847,32.07802986469088
7.845390900284677,-7.681869244729515,0.13330078125,0.13525390625,0.9521484375,-1,10,19,0.9709013155163791,21.494185260204677
6.400342283365112,-7.39379952268165,0.12451171875,0.10546875,0.922607421875,13,18,14,0.9369265073801017,26.248809496813376
5.9681429272658235,-8.265410114659055,0.142822265625,0.1005859375,0.94677734375,18,19,11,0.9627580532092773,28.39013913315678
5.697255850464916,-6.973845682032844,0.12060546875,0.095703125,0.94677734375,17,21,5,0.959214316962314,27.477263328068172
6.685673487147333,-5.831547121039102,0.104248046875,0.115234375,0.966552734375,12,32,7,0.9789641488771088,34.88552708502482
8.280159884724336,-5.837727643910489,0.10595703125,0.144775390625,0.97265625,6,38,6,0.9890636920168475,38.93584466786357
7.850057046218696,-5.4536903820683555,0.097900390625,0.136474609375,0.9638671875,-2,35,4,0.978391414837511,35.2845575287547
7.810653290811571,-4.501771622531243,0.078857421875,0.13330078125,0.9423828125,-11,28,6,0.9550251078176124,30.675723300355934
6.485198936142461,-3.947442743961476,0.068359375,0.110107421875,0.936767578125,-14,23,5,0.9456903002191193,27.386127875258307
6.627853691577861,-4.081148940174967,0.072021484375,0.11474609375,0.955078125,-14,23,0,0.964638784776964,26.92582403567252
6.519210717360372,-4.330570215720661,0.07861328125,0.117919921875,0.99609375,-16,12,12,1.0061251983490724,23.323807579381203
5.8209697713757125,-4.461945957736528,0.08203125,0.107421875,1.025146484375,-5,-1,21,1.0340183265452796,21.61018278497431
5.432808191894749,-4.208890483121145,0.071533203125,0.09423828125,0.966796875,-2,-17,31,0.974009266029868,35.41186241925155
5.380607988289909,-4.345853698652179,0.073486328125,0.09228515625,0.960205078125,3,-16,29,0.967424716731188,33.25657829663178
5.0162911344681405,-3.7583160250079364,0.066162109375,0.088134765625,0.98779296875,6,-4,18,0.9939215817863407,19.390719429665317
4.7615969173606025,-5.481506146672384,0.09521484375,0.08251953125,0.974609375,8,-7,19,0.9827200890110811,21.77154105707724
5.148532592173439,-5.3736873122089985,0.09130859375,0.087646484375,0.95654296875,8,-11,16,0.9648801047699984,21.0
5.231746460730384,-5.222544146001757,0.090576171875,0.09033203125,0.973876953125,12,-8,7,0.9822424540862169,16.0312195418814
5.598507070859661,-5.781671748622419,0.102783203125,0.098388671875,0.998046875,22,-10,12,1.0081380274026106,26.981475126464083
5.9653845617131775,-4.975633030792174,0.08935546875,0.104248046875,1.00390625,36,-4,18,1.0132520978817892,40.44749683231337
5.7887446934970095,-4.078041536857944,0.071533203125,0.099365234375,0.99462890625,43,-14,23,1.0021362732182646,50.73460357586329
6.033786453018224,-4.06303276451212,0.070556640625,0.104248046875,1.00537109375,50,-31,28,1.0132210671722184,65.1536645170477
6.1287524565413065,-5.137685932948702,0.085693359375,0.102783203125,0.97216796875,48,-47,27,0.9813349571624914,72.40165743959182
6.442805893939385,-7.629925593089122,0.122314453125,0.103759765625,0.9248046875,45,-60,20,0.9386110080474208,77.62087348130012
8.091667055431042,-9.667164312883372,0.151123046875,0.126708984375,0.8837890625,42,-52,15,0.9055255098630609,68.5054742338158
8.67418055550606,-12.312572708262513,0.19677734375,0.138427734375,0.885986328125,35,-38,14,0.9180715300464999,53.52569476429054
8.361327632081236,-11.74864136169336,0.190673828125,0.13525390625,0.89892578125,31,-29,15,0.9288259729807563,45.02221673796171
8.935633767725598,-10.059230412218886,0.168212890625,0.148681640625,0.928466796875,32,-25,10,0.9552237432825267,41.82104733265297
9.251741664427422,-8.376422939390412,0.1435546875,0.157958984375,0.956787109375,33,-26,12,0.9803063611515394,43.69210454990696
8.991878439323944,-7.483267080851151,0.134765625,0.1611328125,1.010986328125,39,-28,12,1.0325787682310106,49.48737212663449
9.18263405202002,-7.908168748998757,0.14208984375,0.1650390625,1.01220703125,39,-37,10,1.0353697358720297,54.680892457969264
10.266155333081853,-7.960878425762837,0.141845703125,0.1845703125,1.010498046875,44,-53,13,1.0369632136626463,70.09992867328754
10.683370663810617,-8.721069218905281,0.142822265625,0.17822265625,0.93798828125,52,-79,19,0.9653929409941803,96.46761114488116
10.195048923185,-10.448704391825336,0.162109375,0.159912109375,0.882080078125,58,-83,22,0.9109975830992411,103.61949623502326
10.572962450704322,-11.60215348464127,0.181640625,0.165283203125,0.87353515625,58,-59,18,0.9074004204816981,84.66994744299774
11.41496542247185,-11.368439220913034,0.1875,0.186767578125,0.91015625,56,-39,8,0.9478516643719841,68.70953354520753
13.910573628023592,-10.536703478528844,0.168212890625,0.222900390625,0.876953125,35,-45,-4,0.9203406674489949,57.148928248918196
13.591756731329484,-9.983194126008517,0.156494140625,0.214111328125,0.863525390625,31,-43,-3,0.9033328163724971,53.094255809833136
13.834919683275597,-11.81344151158559,0.187744140625,0.219970703125,0.86181640625,22,-28,-17,0.9090448232370018,39.45883931389772
13.711384633944268,-11.517725526263593,0.189453125,0.225341796875,0.8876953125,9,-14,-25,0.9352402791933162,30.033314835362415
14.65975997340366,-12.994343234387635,0.22509765625,0.255859375,0.921875,-27,-5,-23,0.9828461172786073,35.81898937714463
12.962616213391327,-13.05369548876907,0.2333984375,0.235595703125,0.959228515625,-40,-6,-26,1.0149381809482514,48.08326112068523
13.233668258710313,-13.570463955572038,0.248291015625,0.248046875,0.98291015625,-50,-18,-17,1.0436896358097838,55.794264938253285
11.976405584546132,-12.512088375623827,0.215087890625,0.21240234375,0.935546875,-52,-27,-8,0.9831711507394176,59.135437767890075
8.746151416216792,-14.001948822693628,0.232421875,0.150634765625,0.901611328125,-54,-5,-7,0.9431933776255751,54.680892457969264
8.029895168227661,-14.011385339877464,0.23779296875,0.1416015625,0.92138671875,-55,2,5,0.9620550836507603,55.263007518592396
7.2373327668040766,-14.141061708138466,0.242919921875,0.12890625,0.93505859375,-44,0,12,0.9746596757220164,45.60701700396552
6.641711489803086,-13.29297947533481,0.22900390625,0.117919921875,0.943115234375,-31,-4,19,0.977657528157471,36.578682316343766
7.317058696265537,-11.673519840092064,0.205810546875,0.130859375,0.96533203125,-18,3,38,0.9956646462477354,42.15447781671598
6.6046497248226865,-11.136856440133904,0.193359375,0.115234375,0.94970703125,-9,12,46,0.9760175481453803,48.38388161361178
7.1910655105301124,-10.556645881046563,0.185302734375,0.1259765625,0.956298828125,-7,20,37,0.9821988832916766,42.638011210655684
8.301830112752608,-10.348595180374746,0.184326171875,0.1474609375,0.97021484375,-5,15,30,0.9985177558558024,33.91164991562634
9.553366698665409,-10.726652973696705,0.181396484375,0.162353515625,0.92529296875,-5,-4,32,0.956781284619215,32.63433774416144
8.970648902404736,-12.27268445651978,0.21533203125,0.160400390625,0.96728515625,-9,-28,32,1.0038609179047118,43.46262762420146
9.025648587845948,-12.483168789583566,0.209716796875,0.155517578125,0.9326171875,-7,-47,27,0.9684738873184892,54.653453687758834
8.34915351355991,-13.562409041645342,0.222412109375,0.140625,0.90625,-11,-42,30,0.9436798183290968,52.773099207835045
7.72273155623302,-13.142974092313974,0.212890625,0.127685546875,0.890869140625,-12,-21,23,0.9248101658240919,33.37663853655727
8.179098048737428,-14.079223507219355,0.240234375,0.140625,0.917236328125,-19,29,16,0.9585459963866487,38.18376618407357
7.68905200018923,-13.085042933569452,0.227294921875,0.134765625,0.93896484375,-20,24,15,0.9754382261272443,34.655446902326915
8.391107378278345,-11.300504529796846,0.193115234375,0.144775390625,0.9326171875,-17,6,29,0.9633422164001444,34.14674215792775
6.419485106418895,-12.442253336275524,0.21044921875,0.110595703125,0.927001953125,-18,1,35,0.9570020398723104,39.370039370059054
5.68152517649632,-11.285495645277392,0.189453125,0.096435546875,0.914794921875,-20,24,19,0.9391709377752451,36.565010597564445
5.3184259944795915,-11.74343585242796,0.2001953125,0.091552734375,0.924560546875,-21,35,14,0.9504063715886542,43.15089802078283
3.4581302668412155,-10.131148332103336,0.181884765625,0.06298828125,0.97607421875,-21,39,0,0.9948720882855812,44.294469180700204
6.897649038505692,-10.16855098586789,0.173583984375,0.118408203125,0.92919921875,-21,24,0,0.9526610574198999,31.89043743820395
6.890912283308948,-9.548185499814078,0.157470703125,0.11376953125,0.902587890625,-10,15,3,0.9232580510812854,18.275666882497067
6.603880230060676,-11.663096450439713,0.190185546875,0.10791015625,0.893798828125,0,5,8,0.9201584044172316,9.433981132056603
6.368461386518591,-11.590300585429253,0.19140625,0.105224609375,0.905029296875,1,7,5,0.9310137481043128,8.660254037844387
7.062253887013271,-12.927559531580952,0.215576171875,0.1181640625,0.9072265625,-4,13,1,0.939944608608587,13.638181696985855
6.530587632911645,-12.397262639471604,0.218994140625,0.115478515625,0.960693359375,-5,20,-7,0.9920813736515057,21.77154105707724
7.5965700995844365,-11.828247437475861,0.215576171875,0.13818359375,0.988525390625,-6,23,-5,1.021151428228083,24.289915602982237
7.593422975964231,-10.891130616709079,0.1982421875,0.13720703125,0.986572265625,-4,28,-6,1.0156035494373132,28.91366458960192
7.021600049595421,-10.507127617506779,0.186767578125,0.124267578125,0.967041015625,-6,24,-1,0.99271994294099,24.758836806279895
6.459865068276231,-9.922155946986726,0.17431640625,0.11376953125,0.9619140625,-10,15,-4,0.9841790382669272,18.466185312619388
6.703553445697057,-9.824905529537252,0.170166015625,0.11767578125,0.95068359375,-22,9,-2,0.9729354335164799,23.853720883753127
5.6072593912269255,-9.747982422829871,0.168701171875,0.099853515625,0.955078125,-32,3,-6,0.9749897613965933,32.69556544854363
5.785995013497187,-9.569378741853352,0.16650390625,0.10400390625,0.961181640625,-37,1,-7,0.9810252339192577,37.66961640367472
4.115086712491271,-11.163024849559493,0.194091796875,0.0751953125,0.961181640625,-38,-2,-6,0.9834612889741545,38.52272056851645
4.943294002287245,-10.45514495920097,0.183349609375,0.08984375,0.968017578125,-34,2,-5,0.989316435843971,34.42382895611701
3.8971159144492034,-11.425878958407159,0.197998046875,0.06982421875,0.954345703125,-25,6,-5,0.9771665002257871,26.19160170741759
4.407851405378237,-11.111654304323723,0.190185546875,0.0771484375,0.9443359375,-17,2,-8,0.966381284226282,18.894443627691185
4.204680493306219,-11.137585991277247,0.19189453125,0.073486328125,0.94873046875,-11,7,-11,0.9707282080374233,17.05872210923198
5.232517678670437,-10.786175593248425,0.185791015625,0.0908203125,0.948974609375,-6,4,-7,0.9712463332687544,10.04987562112089
4.713759807934011,-10.758778586042009,0.185546875,0.081787109375,0.94970703125,-5,7,-3,0.9711128766975919,9.1104335791443
4.604280800250977,-10.365228554752939,0.180419921875,0.081298828125,0.95751953125,-15,11,-3,0.9777548263184893,18.841443681416774
4.009316693065369,-10.691587039982481,0.186279296875,0.07177734375,0.957763671875,-24,13,-2,0.9783471851462203,27.367864366808018
3.909830555165784,-10.6474279321433,0.185546875,0.06982421875,0.957275390625,-22,15,-3,0.9775884808254237,26.795522013948524
4.11090151590236,-9.85624364556206,0.173828125,0.07373046875,0.96826171875,-19,18,-1,0.9865004587225565,26.19160170741759
3.8455758333062198,-9.845558538188765,0.17138671875,0.068115234375,0.95751953125,-17,15,-1,0.9751188364722899,22.693611435820433
4.174464082809233,-9.553909220464138,0.16796875,0.07470703125,0.968505859375,-18,12,-2,0.9857982760881956,21.72556098240043
3.8093937014068384,-9.929333855761163,0.172607421875,0.06787109375,0.96044921875,-19,6,-2,0.9781934927460113,20.024984394500787
3.4866501725235874,-10.838656236849728,0.1845703125,0.06103515625,0.9404296875,-18,4,-4,0.9603121824105728,18.867962264113206
3.6598950809297994,-10.455983999810098,0.1796875,0.064697265625,0.951904296875,-18,-1,-5,0.9708733821898147,18.708286933869708
2.9551108983683485,-9.212856164572498,0.159912109375,0.052490234375,0.96484375,-12,-1,-10,0.979413380214691,15.652475842498529
2.8344513190423584,-8.759251374908038,0.152587890625,0.05078125,0.96875,-15,0,-2,0.9820073127105263,15.132745950421556
3.602375601931101,-10.925750204330098,0.188720703125,0.063720703125,0.955810546875,-14,-1,-3,0.9763450380435317,14.352700094407323
3.1380316412969576,-9.811450923708664,0.168212890625,0.0546875,0.9501953125,-9,2,-5,0.9665182001005677,10.488088481701515
2.4113894065551205,-10.190838445017503,0.176513671875,0.04248046875,0.9580078125,-8,6,-4,0.9750592983993589,10.770329614269007
2.658957745183754,-9.955062508559006,0.17138671875,0.046630859375,0.953857421875,-9,3,1,0.970253485268651,9.539392014169456
3.3416854636578224,-10.021190945650213,0.17236328125,0.05810546875,0.95361328125,-5,0,0,0.9708056635590439,5.0
3.106028146254215,-9.881084579429533,0.1689453125,0.0537109375,0.948486328125,-5,0,0,0.9649112384374516,5.0
3.1174237410616077,-10.090789976867834,0.17041015625,0.053466796875,0.938720703125,-6,-5,-2,0.955559981475112,8.06225774829855
2.9050540108862113,-10.775224266170593,0.186279296875,0.051025390625,0.96044921875,-5,-7,-3,0.979676614363211,9.1104335791443
3.4635224610921056,-10.705522708283405,0.181396484375,0.0595703125,0.94140625,-5,-8,-2,0.9605722430999242,9.643650760992955
3.1845081649008473,-10.021898474210714,0.171875,0.055419921875,0.954345703125,-5,-7,-2,0.9712816813050588,8.831760866327848
3.2632211380060236,-10.793342765390065,0.186279296875,0.057373046875,0.95751953125,-8,-5,-3,0.9771567405883178,9.899494936611665
3.089337341274737,-10.542618821826215,0.18017578125,0.053955078125,0.948486328125,-10,-4,-3,0.9669543821942005,11.180339887498949
2.713350470151503,-10.473647966788977,0.1796875,0.047607421875,0.953125,-9,-5,-3,0.9710825556557147,10.723805294763608
2.6022445856531577,-10.533568864413645,0.180908203125,0.045654296875,0.9541015625,-8,-5,-4,0.972173793282872,10.246950765959598
2.1515868586552465,-10.613877825991178,0.18359375,0.037841796875,0.960205078125,-5,-3,-3,0.9783314666751901,6.557438524302
2.091775793709443,-10.515201277028368,0.179931640625,0.0361328125,0.94970703125,-2,-2,-3,0.9672768066292362,4.123105625617661
2.1779845157867226,-10.267898588567622,0.17529296875,0.037353515625,0.947998046875,0,-2,-2,0.9647917945865576,2.8284271247461903
2.5686851050738118,-10.234846489114146,0.175537109375,0.0439453125,0.95263671875,4,-3,-1,0.9696706580943965,5.0990195135927845
2.9129889754330924,-10.540251848483376,0.18212890625,0.05029296875,0.959228515625,4,-4,-2,0.9776603021426464,6.0
3.222731556181847,-10.790535466578213,0.184814453125,0.05517578125,0.949462890625,4,-3,-2,0.9688552676196901,5.385164807134504
3.0259015069183945,-10.665406549909,0.182861328125,0.052001953125,0.950927734375,2,-3,-2,0.9697453400022215,4.123105625617661
3.0717636973640463,-10.460562170170938,0.18212890625,0.0537109375,0.966552734375,1,-4,-2,0.9850279141358074,4.58257569495584
2.8067633640923733,-10.77083770344583,0.185302734375,0.048583984375,0.95458984375,0,-4,-2,0.9736217318318503,4.47213595499958
2.8962612946205533,-11.241845538294294,0.19189453125,0.0498046875,0.945068359375,-1,-2,-2,0.9656387636753114,3.0
2.7880647793239217,-10.97919390829441,0.1875,0.0478515625,0.94580078125,0,-1,-1,0.9653937745017842,1.4142135623730951
2.769094318342502,-10.729343130916003,0.18359375,0.047607421875,0.9482421875,0,-1,-3,0.9670244970068917,3.1622776601683795
2.954220650155082,-10.049398059434385,0.172119140625,0.05078125,0.949951171875,0,0,-2,0.9667527930488419,2.0
3.09380400557981,-10.831839887015976,0.18701171875,0.0537109375,0.955322265625,-1,1,-1,0.9749353203960974,1.7320508075688772
2.8879810594224447,-10.85819362380903,0.186279296875,0.0498046875,0.948974609375,-1,2,-2,0.9683663008281788,3.0
2.9425600115395247,-10.645119439158288,0.1865234375,0.052001953125,0.96826171875,-4,5,-2,0.9874340240554481,6.708203932499369
2.9515990598977124,-10.57770279705481,0.18017578125,0.050537109375,0.94140625,-2,5,-2,0.9598244834927326,5.744562646538029
2.6844891574229623,-10.045716665056405,0.171875,0.04638671875,0.9482421875,-4,2,-2,0.9648087838821622,4.898979485566356
2.2891221172832013,-10.575917372033038,0.182373046875,0.039794921875,0.95361328125,-3,5,-2,0.9717107873281535,6.164414002968976
2.417217020774974,-10.506146303859975,0.180419921875,0.041748046875,0.94970703125,-2,5,-1,0.9675937643623727,5.477225575051661
1.8555792897493029,-10.19370299064821,0.174560546875,0.03173828125,0.948486328125,1,4,-1,0.9649378309829335,4.242640687119285
3.1100146645596456,-10.149403754348082,0.1728515625,0.052978515625,0.9423828125,1,4,-1,0.959567481249719,4.242640687119285
2.8005736411810553,-10.495176033966931,0.180908203125,0.04833984375,0.954345703125,1,2,-1,0.972543181316306,2.449489742783178
2.8355861441450103,-10.784548282992152,0.186767578125,0.04931640625,0.957275390625,-1,4,-3,0.9765707397113326,5.0990195135927845
2.7583138692998928,-11.01828273101595,0.190185546875,0.0478515625,0.952392578125,-2,7,-2,0.9723743811626355,7.54983443527075
2.7868992553907144,-10.42242536686089,0.180419921875,0.04833984375,0.955810546875,-1,8,-2,0.9738900811799256,8.306623862918075
2.9578584333189193,-10.792473386045181,0.18603515625,0.051025390625,0.950927734375,0,8,-2,0.9702969781736756,8.246211251235321
2.844020360536882,-10.144331609641542,0.176025390625,0.049560546875,0.95947265625,-2,6,-1,0.9767440627117544,6.4031242374328485
1.8261932396587777,-10.211737087296587,0.17626953125,0.03173828125,0.9560546875,-2,4,-2,0.9726863994291899,4.898979485566356
1.8344604057652554,-9.78717332090722,0.16845703125,0.03173828125,0.95556640625,-1,1,-2,0.9708203987493298,2.449489742783178
2.6420688928181097,-10.251075434152138,0.177001953125,0.0458984375,0.9580078125,-1,-1,-2,0.975302684701545,2.449489742783178
2.778485631900133,-10.787473240252497,0.184814453125,0.0478515625,0.94970703125,0,-2,-2,0.9687051147399154,2.8284271247461903
3.0602531628753935,-10.858697702844598,0.18896484375,0.053466796875,0.962890625,0,1,-1,0.9827129622908335,1.4142135623730951
2.529850464336455,-10.712372880970186,0.18408203125,0.043701171875,0.951171875,-1,2,-2,0.9698061262146109,3.0
2.94024957228877,-10.068045332461022,0.173095703125,0.05078125,0.951171875,-2,5,-2,0.9681264347092875,5.744562646538029
2.68840831782372,-10.088805828053292,0.1748046875,0.046875,0.960205078125,-2,2,-2,0.9771119365016528,3.4641016151377544
2.7423978056796456,-9.989465795790734,0.17138671875,0.04736328125,0.951416015625,-2,1,-2,0.9678890032242378,3.0
2.5294612759464883,-10.150890025489138,0.17333984375,0.04345703125,0.94775390625,-1,-1,-2,0.9644546032906223,2.449489742783178
3.5249878237207066,-10.265179288649872,0.176025390625,0.060791015625,0.951904296875,0,-4,-2,0.9699496255654161,4.47213595499958
1.8272158108156695,-10.710886081444732,0.1845703125,0.031494140625,0.95703125,2,-4,-2,0.975175314816068,4.898979485566356
2.767723439220477,-10.73076683406029,0.18505859375,0.0478515625,0.95703125,2,-4,-2,0.9759330246645932,4.898979485566356
2.922367796672192,-10.687178453278598,0.18359375,0.05029296875,0.952392578125,2,-2,-2,0.9712299782298398,3.4641016151377544
1.9569914389549101,-10.459312068290213,0.178466796875,0.033447265625,0.94677734375,1,-1,-2,0.9640313562342864,2.449489742783178
1.9829328836434033,-10.31519035429975,0.177001953125,0.0341796875,0.952880859375,0,-2,-2,0.9697834163414535,2.8284271247461903
2.885353041267803,-10.771952612875117,0.1845703125,0.0498046875,0.9501953125,-1,-3,-2,0.9692356983986367,3.7416573867739413
1.8379223641271674,-10.44756736337888,0.181884765625,0.0322265625,0.966552734375,-1,-2,-2,0.9840451247909401,3.0
2.558488641006121,-10.557531316030454,0.18017578125,0.0439453125,0.9462890625,-1,-1,-2,0.9642911865442406,2.449489742783178
2.5448563811774467,-10.495070069114174,0.1796875,0.043701171875,0.949951171875,1,-2,-2,0.9677833533524867,3.0
2.572859172203176,-10.254358156123887,0.17529296875,0.044189453125,0.948974609375,0,-2,-2,0.9660399276940415,2.8284271247461903
2.9371945054565196,-10.654343164698655,0.181884765625,0.05029296875,0.946044921875,1,-1,-1,0.9646825617153161,1.7320508075688772
2.8692123601372708,-10.845254065022855,0.185791015625,0.049560546875,0.948974609375,-2,-1,-2,0.9682599643339344,3.0
2.7810633271461582,-10.49157719203706,0.180908203125,0.04833984375,0.9560546875,-2,-1,-2,0.9742202440631242,3.0
2.464647624597399,-10.50052134692328,0.180419921875,0.042724609375,0.953369140625,-2,-2,-2,0.9712308987834347,3.4641016151377544
2.488959664788052,-10.632512349925744,0.179931640625,0.04248046875,0.938232421875,-2,-1,-2,0.956274052236414,3.0
2.335734847544078,-10.980085556541518,0.1865234375,0.0400390625,0.941162109375,-2,-1,-2,0.960302158378234,3.0
2.7972643937296153,-10.603107269863436,0.18115234375,0.048095703125,0.947021484375,-1,-1,-2,0.9653906256915046,2.449489742783178
2.6255962297744055,-10.363538807208947,0.1767578125,0.045166015625,0.946533203125,-2,-2,-1,0.9639545621372905,3.0
2.585362337894634,-10.421820632492352,0.181396484375,0.04541015625,0.96630859375,-2,-3,-2,0.9842352692265003,4.123105625617661
1.8104954099226442,-10.60379894587099,0.1826171875,0.031494140625,0.955810546875,-2,-2,-2,0.9736091205312345,3.4641016151377544
2.360550766132286,-10.579009648784309,0.1826171875,0.041015625,0.957275390625,-1,-1,-2,0.9754011954887062,2.449489742783178
2.324983049917077,-10.632200539085446,0.1826171875,0.040283203125,0.952392578125,-2,-1,-2,0.9705788976131742,3.0
2.4363787979985907,-10.69236574217831,0.182373046875,0.041748046875,0.945556640625,0,-1,-2,0.9638880579581758,2.23606797749979
2.567745457594998,-10.718891763895103,0.18701171875,0.044921875,0.967041015625,1,-1,-2,0.9859815838566034,2.449489742783178
2.604241108101872,-10.720252897858579,0.1845703125,0.044921875,0.953369140625,1,1,-2,0.9721095069002845,2.449489742783178
2.774620763066631,-10.723982354007902,0.1845703125,0.0478515625,0.952880859375,1,1,-2,0.9717704998883623,2.449489742783178
2.779126898861596,-10.703299607360277,0.18359375,0.0478515625,0.94970703125,0,1,-2,0.9684729641442978,2.23606797749979
2.6756965761025704,-10.804426601053054,0.18701171875,0.04638671875,0.957763671875,1,2,-2,0.976952589325451,3.0
3.3985199745142616,-10.784007329121572,0.185791015625,0.058837890625,0.95263671875,-1,2,-2,0.9723666575787834,3.0
2.50352856283119,-10.742192348950008,0.18408203125,0.043212890625,0.948486328125,-2,2,-2,0.9671503827147768,3.4641016151377544
2.5085837804444195,-10.677436809414703,0.1826171875,0.043212890625,0.94677734375,-2,2,-2,0.9651962130701115,3.4641016151377544
1.7776142506968169,-10.137924574708554,0.1767578125,0.03125,0.96728515625,-2,1,-2,0.9837989938403943,3.0
2.3510255113752128,-10.354130657900031,0.17822265625,0.040771484375,0.9541015625,-2,1,-2,0.9714604576120882,3.0
3.4507228782165624,-10.63952719272086,0.181884765625,0.059326171875,0.945068359375,-2,3,-2,0.9642384904822859,4.123105625617661
2.2518984676615323,-10.375659504174275,0.17822265625,0.0390625,0.9521484375,-3,1,-2,0.9694719393261195,3.7416573867739413
2.435566458113688,-10.224229403258267,0.177978515625,0.042724609375,0.965576171875,-2,0,-2,0.9827711269482352,2.8284271247461903
2.352833048898718,-10.770302743909255,0.182861328125,0.040283203125,0.940673828125,-2,0,-2,0.9591289030662098,2.8284271247461903
2.434161337822791,-10.476088787232074,0.179931640625,0.0419921875,0.95263671875,0,-1,-2,0.9703893327009556,2.23606797749979
2.2990255623734397,-10.635014796070962,0.181396484375,0.039306640625,0.94580078125,1,-1,-1,0.963840658176414,1.7320508075688772
2.5249047366429243,-10.563871887398415,0.182373046875,0.043701171875,0.957275390625,1,-1,-2,0.9754721390926373,2.449489742783178
2.5165486025599892,-10.648778344537838,0.182373046875,0.043212890625,0.949462890625,1,-1,-1,0.9677846159226855,1.7320508075688772
2.539416330791781,-11.073545304894187,0.190673828125,0.0439453125,0.95361328125,0,-1,-2,0.9734813759897805,2.23606797749979
2.722561561194449,-10.785928954930496,0.1845703125,0.046875,0.94775390625,-1,0,-2,0.9666958842849603,2.23606797749979
2.6124298808474022,-10.892222900503624,0.188232421875,0.04541015625,0.95654296875,-1,1,-2,0.9759446592920322,2.449489742783178
2.494061927983629,-10.851942208125317,0.18701171875,0.043212890625,0.95361328125,-1,2,-2,0.9727379025422979,3.0
2.498679553021313,-10.701885611325343,0.183837890625,0.043212890625,0.950439453125,-2,3,-2,0.969019544695651,4.123105625617661
2.235219778555523,-10.435930340907332,0.18017578125,0.038818359375,0.955078125,-2,5,-2,0.9726995435524426,5.744562646538029
2.5049054987401798,-10.25598041088162,0.177734375,0.043701171875,0.960205078125,-2,2,-1,0.977493269816691,3.0
2.0328724833660297,-10.482936387299342,0.18017578125,0.03515625,0.953125,-1,0,-2,0.9706423335544924,2.23606797749979
2.385774303236354,-10.544980576472621,0.181640625,0.041259765625,0.954833984375,0,0,-2,0.9728327824591738,2.0
2.340847463992841,-10.453482629117921,0.182373046875,0.041015625,0.9677734375,0,-1,-1,0.985661014776976,1.4142135623730951
2.4095945526132634,-10.552060831618846,0.181396484375,0.04150390625,0.952880859375,1,0,-2,0.9708806265143295,2.23606797749979
2.3990212060340674,-10.576502601908475,0.1826171875,0.04150390625,0.95703125,1,0,-2,0.9751822521359694,2.23606797749979
2.5322397885120886,-10.62428606772427,0.180908203125,0.043212890625,0.943603515625,1,0,-2,0.9617602230150424,2.23606797749979
2.545748236837253,-10.515950681774632,0.18115234375,0.0439453125,0.954833984375,1,0,-2,0.9728593422763018,2.23606797749979
2.685685174493825,-10.215839632155621,0.176025390625,0.04638671875,0.9560546875,1,-1,-2,0.9732303074359111,2.449489742783178
2.458257497780711,-10.229669663906254,0.17529296875,0.042236328125,0.951416015625,1,-2,-2,0.9683511589781991,3.0
2.459519543601186,-10.90826310138346,0.1875,0.04248046875,0.952392578125,0,-1,-2,0.9716030378157553,2.23606797749979
2.575946573341764,-10.654010411419305,0.18603515625,0.045166015625,0.967529296875,0,0,-2,0.986286970734092,2.0
2.3515777583851767,-10.626950125403477,0.185791015625,0.041259765625,0.968505859375,0,1,-2,0.987027998280751,2.23606797749979
2.775564534778853,-10.619907367978472,0.18310546875,0.048095703125,0.954345703125,-1,2,-2,0.9729422030205063,3.0
2.469062656087873,-10.47602615440007,0.18310546875,0.04345703125,0.968017578125,-2,2,-2,0.9861410435684194,3.4641016151377544
2.4154683813859545,-10.64399404430301,0.18408203125,0.0419921875,0.95751953125,-1,2,-1,0.9759575763143503,2.449489742783178
2.3035030884323913,-10.654994988798913,0.183837890625,0.0400390625,0.955322265625,-2,2,-2,0.9736735221593589,3.4641016151377544
2.434873782689472,-10.76885218925261,0.184814453125,0.0419921875,0.949462890625,-1,3,-2,0.9681939405764264,3.7416573867739413
2.411915027656229,-10.72110118109841,0.18359375,0.04150390625,0.947509765625,-1,3,-2,0.9660248419310001,3.7416573867739413
2.4305018137843164,-10.914325218986887,0.18505859375,0.04150390625,0.937744140625,-2,3,-2,0.9567305423321951,4.123105625617661
2.38373474031074,-10.467352128192983,0.17919921875,0.041015625,0.9482421875,-1,2,-1,0.9658974519324172,2.449489742783178
2.167681436887863,-10.306953896582156,0.178955078125,0.037841796875,0.962646484375,-1,1,-1,0.9798699788528071,1.7320508075688772
2.3166393339359113,-10.804074402137926,0.186767578125,0.040283203125,0.957275390625,-1,1,-2,0.9761562570556696,2.449489742783178
2.2024689094031666,-10.51612205647952,0.180908203125,0.0380859375,0.952880859375,-1,2,-1,0.9706493953824978,2.449489742783178
2.1421534705534477,-10.692751230631316,0.18310546875,0.036865234375,0.94775390625,-1,3,-1,0.9659835014138776,3.3166247903554
2.3216129748745855,-10.625429237336096,0.182373046875,0.0400390625,0.949951171875,-1,3,-1,0.9681272042965406,3.3166247903554
2.4308967255856806,-10.420899930513421,0.181884765625,0.042724609375,0.966796875,-2,2,-1,0.9846845473157753,3.0
2.2062946476965184,-10.300197413278873,0.177978515625,0.038330078125,0.9580078125,-1,1,-2,0.9751535857105701,2.449489742783178
2.50985625492466,-10.501014945074038,0.1787109375,0.04296875,0.943359375,-1,0,-2,0.9610987582236709,2.23606797749979
2.239503447904557,-10.482111069413474,0.1787109375,0.038330078125,0.9453125,0,0,-1,0.9628200853365324,1.0
2.2921652097133967,-10.674487100467847,0.1845703125,0.039794921875,0.958251953125,0,0,-2,0.9766763239329918,2.0
2.3696949042384046,-10.379149467715814,0.177978515625,0.040771484375,0.950439453125,0,1,-1,0.9678191050081458,1.4142135623730951
2.3598853208462427,-10.483823852810135,0.180419921875,0.040771484375,0.9541015625,0,0,-2,0.9718659648904593,2.0
2.2335317713161613,-10.410624118334551,0.17919921875,0.03857421875,0.9541015625,0,1,-1,0.9715503702421839,1.4142135623730951
2.323640600860096,-10.463813040538335,0.1796875,0.0400390625,0.95166015625,0,1,-2,0.9693027273127335,2.23606797749979
2.475262150874565,-10.302841637582963,0.17724609375,0.042724609375,0.95361328125,0,1,-1,0.9708861211142488,1.4142135623730951
2.472481222796522,-10.67079813591764,0.183349609375,0.042724609375,0.95166015625,-1,1,-2,0.9701028422275577,2.449489742783178
2.3249100862455343,-10.7284320669637,0.184814453125,0.040283203125,0.9541015625,-1,1,-2,0.9726710184347246,2.449489742783178
2.404816511437406,-10.459346976703042,0.179443359375,0.04150390625,0.951171875,-1,0,-2,0.96883973352088,2.23606797749979
2.2501108083589614,-10.319456990622657,0.1796875,0.039306640625,0.96533203125,0,1,-2,0.9826996185054332,2.23606797749979
2.399097206055189,-10.636833277894235,0.183349609375,0.04150390625,0.954833984375,0,1,-2,0.9731637021639328,2.23606797749979
2.419831541990776,-10.499069972657862,0.180419921875,0.041748046875,0.95263671875,0,0,-2,0.9704694562622901,2.0
2.333252305805443,-10.170720673037504,0.176025390625,0.04052734375,0.960205078125,0,0,-2,0.977047181968789,2.0
2.2799623166848404,-10.410540005272264,0.1787109375,0.039306640625,0.952392578125,0,-1,-2,0.969811442522172,2.23606797749979
2.297783101341309,-10.48470925155685,0.178955078125,0.039306640625,0.94677734375,1,-1,-2,0.9643429216944839,2.449489742783178
2.6130969672812983,-10.461091021194036,0.179931640625,0.045166015625,0.954345703125,0,-2,-2,0.9722093834861874,2.8284271247461903
2.400805087726759,-10.351064964041324,0.177734375,0.04150390625,0.953125,-1,-2,-2,0.9704428617469704,3.0
2.3076510503304792,-10.603402969426693,0.18212890625,0.0400390625,0.953857421875,-2,-4,-1,0.9719146291129288,4.58257569495584
1.9014558457668234,-10.725259277259575,0.18359375,0.032958984375,0.94970703125,-3,-2,-2,0.967851437409576,4.123105625617661
2.341131408151243,-10.732273726225898,0.183349609375,0.040283203125,0.947509765625,-1,-2,-2,0.9659267941550838,3.0
2.1635747589709724,-10.700006741974898,0.1826171875,0.037109375,0.94677734375,0,-2,-2,0.9649422166749709,2.8284271247461903
2.384595309660876,-10.708407828642418,0.184814453125,0.041259765625,0.956787109375,1,-1,-2,0.9753462580076324,2.449489742783178
1.8405056907623287,-10.919272419922802,0.18505859375,0.03125,0.939453125,1,-1,-2,0.958016398446808,2.449489742783178
2.5508744256882405,-10.653228371320484,0.183349609375,0.044189453125,0.9541015625,-1,-1,-2,0.9725634059486266,2.449489742783178
2.4718911549050055,-10.40362934646994,0.177978515625,0.042724609375,0.948974609375,-3,-1,-2,0.9664649779007818,3.7416573867739413
2.470130557322913,-10.652770679097364,0.181884765625,0.042724609375,0.947021484375,-4,-2,-2,0.9652756870866146,4.898979485566356
2.029460435340002,-10.684337622262161,0.18115234375,0.034912109375,0.940673828125,-4,-2,-2,0.9585939066917086,4.898979485566356
1.8452977190685869,-10.826375742145386,0.183837890625,0.03173828125,0.94189453125,-3,-2,-2,0.9601921664566998,4.123105625617661
1.8364183536560255,-10.773686699404253,0.184814453125,0.03173828125,0.95166015625,-1,-2,-2,0.969959150466849,3.0
1.91874896954178,-10.568538361506192,0.184326171875,0.03369140625,0.967529296875,-1,-1,-2,0.9855070719201494,2.449489742783178
1.8635935496885299,-10.57132622781718,0.18212890625,0.0322265625,0.955322265625,0,0,-1,0.9730622390275304,1.0
2.18523301575256,-10.60591040644322,0.185302734375,0.038330078125,0.968505859375,0,0,-2,0.9868180672746257,2.0
1.9449897676393064,-10.442410297434101,0.1796875,0.03369140625,0.954833984375,-1,-1,-2,0.9721782996080452,2.449489742783178
2.2065467867197066,-10.830446673028986,0.186767578125,0.038330078125,0.956298828125,-1,-2,-2,0.9751198756055559,3.0
2.205610530592962,-10.866936913937124,0.1865234375,0.0380859375,0.950439453125,-1,1,-2,0.9693176390784496,2.449489742783178
2.2635986797991103,-10.532118768862405,0.178466796875,0.03857421875,0.93896484375,-1,1,-2,0.9565528452403752,2.449489742783178
2.382765956451906,-10.597713611321398,0.181396484375,0.041015625,0.9482421875,-1,1,-1,0.9663075142999434,1.7320508075688772
2.260401043789756,-10.91278447084426,0.186279296875,0.038818359375,0.945068359375,-1,1,-1,0.9640337366298781,1.7320508075688772
2.1234561240993415,-10.72245597552557,0.18505859375,0.036865234375,0.9560546875,-1,1,-1,0.9744979702990529,1.7320508075688772
2.2497159461714036,-10.520126494498655,0.181640625,0.0390625,0.956787109375,-1,1,-2,0.9746593087960577,2.449489742783178
2.1036977689135785,-10.431597637208743,0.178955078125,0.036376953125,0.950927734375,-2,1,-2,0.9683035467811495,3.0
2.2069276417347012,-10.681508749628488,0.183349609375,0.0380859375,0.950439453125,-1,2,-2,0.9687119138060438,3.0
2.054869902354333,-10.698455852712977,0.1845703125,0.03564453125,0.955322265625,-1,2,-1,0.9736412912686391,2.449489742783178
1.9272219230539125,-10.554063485710765,0.181640625,0.033447265625,0.953857421875,-2,1,-1,0.9715739897167902,2.449489742783178
2.672695367095594,-10.64987793877554,0.18212890625,0.0458984375,0.947509765625,0,0,-2,0.9659463551416845,2.0
2.3484059664706414,-10.832258579726254,0.18359375,0.0400390625,0.9384765625,-1,1,-1,0.9571039911769033,1.7320508075688772
2.175866729200203,-10.45549136275663,0.179443359375,0.037841796875,0.9521484375,-4,-1,-2,0.9696486826929667,4.58257569495584
1.6999978270775857,-10.972239383844148,0.187744140625,0.029541015625,0.947998046875,-4,0,-2,0.9668613296755595,4.47213595499958
1.778483091081253,-11.11118893787477,0.19140625,0.031005859375,0.95361328125,-3,1,-2,0.9731269218509148,3.7416573867739413
1.6081752138133258,-10.670330222236702,0.186279296875,0.0283203125,0.967041015625,-2,2,-1,0.9852260362197974,3.0
1.9450698474328447,-10.444784393660022,0.17919921875,0.033447265625,0.9501953125,0,3,-2,0.9675237524088866,3.605551275463989
1.9981918535353134,-10.358854906522371,0.177978515625,0.034423828125,0.9521484375,0,2,-2,0.969251256899133,2.8284271247461903
2.146932644680129,-10.875119980886659,0.18603515625,0.036865234375,0.947265625,0,1,-2,0.9660643297281637,2.23606797749979
1.941674915973058,-10.68528838736257,0.183349609375,0.033447265625,0.951171875,0,0,-2,0.9692593742785106,2.0
1.766661433437906,-10.653835213724403,0.181884765625,0.0302734375,0.946533203125,0,0,-2,0.9643254915237904,2.0
2.235907405981355,-10.739582978298042,0.183349609375,0.038330078125,0.946044921875,0,0,-2,0.9644103215709113,2.0
1.95422471149711,-10.497093375782919,0.179443359375,0.033447265625,0.947998046875,1,0,-1,0.9654112779952332,1.4142135623730951
1.920644002315557,-10.689602227470292,0.18408203125,0.033203125,0.95458984375,0,0,-1,0.9727437542999394,1.0
1.9415873659982323,-10.694275609461956,0.18359375,0.033447265625,0.951171875,0,1,-2,0.9693055867000187,2.23606797749979
2.151957130850105,-10.819254575447653,0.183349609375,0.03662109375,0.93896484375,0,0,-2,0.9573991652199585,2.0
2.129022178683966,-10.47332416443159,0.1806640625,0.036865234375,0.95654296875,0,0,-2,0.9741524521601284,2.0
0.9788959574496261,-10.466949719466042,0.182373046875,0.01708984375,0.966796875,0,0,-1,0.9839960307316468,1.0
1.9450335407241621,-10.545644898897807,0.1806640625,0.033447265625,0.949951171875,0,0,-2,0.9675564334980565,2.0
2.1546771125760062,-10.644633628905897,0.181396484375,0.036865234375,0.944580078125,0,0,-2,0.9625462347543439,2.0
2.3548954269229365,-10.78428555992138,0.184814453125,0.04052734375,0.949462890625,0,0,-1,0.9681315139738528,1.0
1.888651507694226,-10.672488595829842,0.1826171875,0.032470703125,0.949462890625,0,-2,-2,0.9674105459451136,2.8284271247461903
2.0806259097179756,-11.584282265481036,0.2001953125,0.0361328125,0.955810546875,0,0,-2,0.9772192920750282,2.0
2.153513172339288,-11.00395834851872,0.18896484375,0.037109375,0.9501953125,0,2,-2,0.9695132540524266,2.8284271247461903
2.210612595424547,-10.843258161436573,0.186279296875,0.0380859375,0.950439453125,0,3,-2,0.9692706892999743,3.605551275463989
2.0025024224132135,-10.676677020449901,0.1826171875,0.034423828125,0.94677734375,-1,3,-2,0.9648426689111004,3.7416573867739413
2.0010102920965243,-10.67352085042974,0.1826171875,0.034423828125,0.947509765625,-1,2,-1,0.9655613875191634,2.449489742783178
1.9063594957357004,-10.71151860224609,0.18408203125,0.032958984375,0.9521484375,-1,1,-2,0.9703397012973595,2.449489742783178
1.7028070579074293,-10.799536175640462,0.1845703125,0.029296875,0.947265625,-1,0,-2,0.9655240398083074,2.23606797749979
1.617915202197138,-10.673924823128512,0.1845703125,0.028076171875,0.958740234375,0,0,-2,0.9767483343691619,2.0
1.9625072546849618,-11.694322598263463,0.198486328125,0.033447265625,0.937744140625,0,2,-2,0.9591035477501135,2.8284271247461903
2.2514176246605935,-10.668999633432042,0.1826171875,0.03857421875,0.94775390625,1,2,-1,0.9659578015289886,2.449489742783178
2.1315792007094325,-10.647923997902621,0.182373046875,0.03662109375,0.948486328125,0,2,-1,0.9665543685556247,2.23606797749979
2.0283406884164137,-10.473951358275484,0.1796875,0.034912109375,0.950927734375,0,1,-1,0.9683852585829839,1.4142135623730951
2.044405998038292,-10.557489627893451,0.180419921875,0.03515625,0.947509765625,-1,0,-2,0.9651746298355475,2.23606797749979
2.010787744120745,-10.913071326167028,0.188232421875,0.034912109375,0.95556640625,-1,0,-1,0.9745550044915269,1.4142135623730951
1.784203952701265,-10.57451936227032,0.18115234375,0.03076171875,0.949951171875,-1,0,-2,0.9675586204118374,2.23606797749979
2.016865447481879,-10.776270794844958,0.1845703125,0.03466796875,0.94873046875,0,1,-2,0.9671388579972336,2.23606797749979
2.078673590048536,-10.613784477807341,0.1826171875,0.035888671875,0.953369140625,0,1,-1,0.9713648913953049,1.4142135623730951
1.9571336955320968,-10.662124925090517,0.18212890625,0.033447265625,0.946044921875,1,2,-2,0.9639972262797676,3.0
2.2307848772213603,-10.707829661026816,0.1845703125,0.03857421875,0.954345703125,0,2,-2,0.9727948867472892,2.8284271247461903
2.1194577933575887,-10.510780756859237,0.1806640625,0.03662109375,0.9521484375,-1,2,-2,0.9698284668023215,3.0
2.130183246049862,-10.608460316160045,0.1826171875,0.036865234375,0.953369140625,-1,2,-1,0.9714014623069006,2.449489742783178
1.821988106658345,-10.41267583909529,0.178955078125,0.031494140625,0.952880859375,-1,1,-2,0.9700508919864311,2.449489742783178
1.8847019451833988,-10.687645043138687,0.184326171875,0.03271484375,0.9560546875,-1,0,-2,0.9742109443700587,2.23606797749979
1.8492901578296619,-10.49807808857545,0.180419921875,0.031982421875,0.953125,-1,0,-1,0.9705779150296856,1.4142135623730951
1.9365906512592144,-10.628251015973598,0.182861328125,0.033447265625,0.953857421875,0,0,-2,0.9718029461611288,2.0
1.6701825619457245,-10.771923841196525,0.18408203125,0.028564453125,0.947265625,1,0,-2,0.9654088701260709,2.23606797749979
1.840170065617977,-10.599188269238722,0.1826171875,0.03173828125,0.955322265625,1,0,-2,0.9731377019034857,2.23606797749979
2.137091389036646,-10.875946288935298,0.187255859375,0.036865234375,0.953857421875,1,0,-2,0.9727629637490395,2.23606797749979
1.9065595204129615,-10.689699475588204,0.18408203125,0.032958984375,0.95458984375,0,0,-2,0.9727354515338725,2.0
2.1070828631256884,-10.387394399121668,0.18115234375,0.036865234375,0.966796875,0,1,-2,0.9843126610287035,2.23606797749979
1.9664700070066625,-10.486455136479531,0.179443359375,0.03369140625,0.948974609375,1,0,-2,0.9663787245781654,2.23606797749979
1.898169505898228,-10.479461181769299,0.180419921875,0.03271484375,0.954833984375,1,0,-2,0.9722805906364714,2.23606797749979
1.774635139324722,-10.614914233670268,0.182373046875,0.030517578125,0.95263671875,1,0,-2,0.9704163893462708,2.23606797749979
1.7305387664692287,-10.695292698189728,0.183837890625,0.02978515625,0.953369140625,1,-1,-2,0.9713888221810757,2.449489742783178
2.1026552203351097,-10.677842173666745,0.18310546875,0.0361328125,0.950927734375,1,-1,-2,0.9690700433038305,2.449489742783178
2.1789876419576797,-10.691231594895783,0.18603515625,0.0380859375,0.96484375,0,-1,-2,0.9833529782892195,2.23606797749979
1.9133883995303091,-10.367381202955338,0.177490234375,0.032958984375,0.94970703125,-1,0,-2,0.9667122235470142,2.23606797749979
1.7539564461931538,-10.607231750491835,0.181396484375,0.0302734375,0.9482421875,-2,0,-2,0.9659111821055087,2.8284271247461903
2.0161234260135568,-10.7503834076999,0.182373046875,0.034423828125,0.940185546875,-1,0,-2,0.9583286444231401,2.23606797749979
1.8198783147961068,-10.77825315660368,0.185302734375,0.031494140625,0.952880859375,-1,0,-1,0.9712419453585176,1.4142135623730951
1.8534042409961555,-10.687042064792081,0.1865234375,0.032470703125,0.967529296875,0,0,-2,0.9858794447647644,2.0
2.709667663813579,-10.746368800750606,0.181884765625,0.046142578125,0.9375,-1,0,-2,0.9560948987848867,2.23606797749979
1.990176346332587,-10.538739521474026,0.18115234375,0.034423828125,0.953125,-1,0,-2,0.9707978353982345,2.23606797749979
1.7153712857166372,-10.786676802671831,0.18505859375,0.029541015625,0.950927734375,0,0,-2,0.9692176797440576,2.0
2.6829215238528428,-10.715891699569598,0.185546875,0.046630859375,0.958740234375,0,1,-2,0.9776425302111946,2.23606797749979
2.07362711231049,-10.603472088952985,0.181640625,0.03564453125,0.94921875,0,1,-1,0.9670987977502533,1.4142135623730951
1.9142185857919916,-10.635552279173453,0.18115234375,0.03271484375,0.94384765625,0,1,-2,0.9616313383289478,2.23606797749979
1.6872855749888165,-10.673067317526213,0.18310546875,0.029052734375,0.951171875,0,0,-2,0.9690715194720342,2.0
1.9684315665674965,-10.451918176656132,0.179443359375,0.033935546875,0.95263671875,0,-1,-2,0.9699836382518302,2.23606797749979
1.9970918374403495,-10.502674557380246,0.1806640625,0.03466796875,0.954345703125,-2,-1,-1,0.971914138496506,2.449489742783178
2.1084053090117205,-10.785727030686948,0.184814453125,0.036376953125,0.949951171875,-1,-1,-2,0.9684456070163348,2.449489742783178
1.8907106572886347,-11.593546433400686,0.20263671875,0.033203125,0.966796875,0,0,-2,0.9883624258364427,2.0
1.8463886945351937,-10.82046573237817,0.186279296875,0.031982421875,0.95361328125,-1,1,-2,0.9721631251645099,2.449489742783178
1.9375434199276205,-10.871695776130247,0.1865234375,0.033447265625,0.9501953125,-1,1,-2,0.9689070358974479,2.449489742783178
1.9613382300332582,-10.626217414444353,0.182861328125,0.033935546875,0.953125,-1,2,-1,0.9711010000460015,2.449489742783178
1.8276766441180803,-10.709397963802916,0.18359375,0.031494140625,0.948974609375,-1,3,-2,0.9670839442215984,3.7416573867739413
1.7731600908495548,-10.431953332902559,0.179931640625,0.03076171875,0.956298828125,-1,1,-2,0.9735651633618093,2.449489742783178
2.013065261926012,-10.56762006718338,0.18212890625,0.034912109375,0.95556640625,-1,0,-2,0.9733945503373097,2.23606797749979
2.125527211138536,-10.502924599227551,0.179931640625,0.03662109375,0.949462890625,-1,1,-2,0.9670554691843851,2.449489742783178
1.852543519131464,-10.741890567571398,0.184326171875,0.031982421875,0.95068359375,-1,1,-2,0.9689160481551008,2.449489742783178
1.8725650865070553,-10.279029119233021,0.17724609375,0.032470703125,0.956298828125,-1,1,-2,0.9731279324859162,2.449489742783178
1.716222855162085,-10.616537865125157,0.181640625,0.029541015625,0.9482421875,-1,1,-1,0.965934384111743,1.7320508075688772
1.7159704404067437,-10.636268094167889,0.185546875,0.030029296875,0.966796875,0,1,-2,0.9848987760185501,2.23606797749979
1.8687316758488943,-10.581617993579576,0.181884765625,0.0322265625,0.95263671875,0,1,-2,0.9703799962941292,2.23606797749979
1.87047762536035,-10.501657316445348,0.181640625,0.032470703125,0.959228515625,0,0,-1,0.9768147257284584,1.0
2.6764334661865705,-10.665340957633433,0.18310546875,0.046142578125,0.951171875,0,0,-1,0.9697343378437182,1.0
1.982903944628609,-10.701764187928827,0.18505859375,0.034423828125,0.95849609375,0,0,-2,0.9768041998258995,2.0
1.7727932746594282,-10.791717018143157,0.18505859375,0.030517578125,0.950439453125,0,0,-1,0.968768888720056,1.0
0.9025033156995333,-10.737724085141238,0.185546875,0.015625,0.958251953125,0,0,-2,0.9761754909416354,2.0
1.956433747965736,-10.971492652039178,0.188232421875,0.03369140625,0.949951171875,0,1,-1,0.9690065966992776,1.4142135623730951
1.9689282379893873,-10.602769158328188,0.18212890625,0.033935546875,0.951904296875,0,1,-2,0.9697651005488983,2.23606797749979
1.888843096395822,-10.649802111358973,0.183837890625,0.03271484375,0.95654296875,0,1,-1,0.9745979079066914,1.4142135623730951
2.6902858842399335,-10.412407520914186,0.179443359375,0.046630859375,0.955322265625,-1,0,-2,0.9731469506034119,2.23606797749979
1.5816831396663624,-10.532746049581638,0.180908203125,0.02734375,0.95263671875,-1,0,-2,0.9700475125130446,2.23606797749979
1.5866091910149702,-11.078725518609987,0.190185546875,0.02734375,0.950927734375,0,0,-1,0.9701452359867443,1.0
1.5598820594286722,-10.86463500025237,0.186279296875,0.02685546875,0.95068359375,0,-1,-2,0.9691338855243076,2.23606797749979
2.10226332846086,-10.671361940129316,0.183837890625,0.036376953125,0.955322265625,0,-1,-1,0.9735298063988544,1.4142135623730951
1.82448060124143,-10.905616653938239,0.1875,0.031494140625,0.95263671875,0,0,-1,0.9714241343535139,1.0
1.6641351730545428,-10.764557723397578,0.1845703125,0.02880859375,0.950439453125,-2,0,-1,0.9686233991530192,2.23606797749979
2.623164204195923,-10.560636693362147,0.180419921875,0.045166015625,0.94677734375,-2,0,-2,0.9648723520834891,2.8284271247461903
1.776251694276259,-10.597539718142983,0.182861328125,0.03076171875,0.956787109375,0,0,-2,0.9745902325235264,2.0
1.9116822526664854,-10.805019544569651,0.185546875,0.032958984375,0.95166015625,0,0,-2,0.9701396757514206,2.0
1.6995953135841892,-10.69005782525503,0.18359375,0.029296875,0.9521484375,0,0,-2,0.9701296918234796,2.0
1.7153703222183934,-10.62855323976958,0.182373046875,0.029541015625,0.951416015625,0,0,-2,0.9691878221574896,2.0
1.9617476792059283,-10.775771663666161,0.184326171875,0.03369140625,0.947998046875,0,0,-2,0.9663392496282086,2.0
1.8564796076482073,-10.822496566076026,0.185791015625,0.031982421875,0.950927734375,0,1,-2,0.9694352648833908,2.23606797749979
1.797129423153843,-10.671619790184403,0.18359375,0.031005859375,0.952880859375,0,2,-2,0.9709016224715474,2.8284271247461903
1.8910243590327167,-10.447664766504765,0.18017578125,0.03271484375,0.9560546875,0,1,-2,0.9734341984137178,2.23606797749979
1.808484606240364,-10.508947980602269,0.18017578125,0.031005859375,0.949951171875,1,2,-2,0.9673840521795446,3.0
1.696220482841804,-10.723634138491919,0.18408203125,0.029296875,0.951171875,-1,1,-2,0.9692638634060939,2.449489742783178
1.6897210045979147,-10.720114188187825,0.184814453125,0.029296875,0.954833984375,-1,2,-2,0.972996724910262,3.0
1.8820114998229314,-10.70538612569998,0.18359375,0.032470703125,0.9501953125,-1,1,-2,0.9683140727560801,2.449489742783178
1.7898578872806834,-10.685987369122227,0.18408203125,0.031005859375,0.9541015625,-1,2,-2,0.9721920330416464,3.0
1.9900839324229056,-10.673978593865314,0.18408203125,0.034423828125,0.955078125,0,2,-1,0.973265338448576,2.23606797749979
1.7635271261391807,-10.597159782814732,0.182373046875,0.030517578125,0.953369140625,-1,2,-2,0.9711354020408984,3.0
1.5607199448970828,-10.509870167087337,0.180908203125,0.027099609375,0.953857421875,-2,2,-2,0.9712394905749125,3.4641016151377544
1.7758439682485083,-10.672232372436042,0.183837890625,0.03076171875,0.9541015625,-1,2,-2,0.9721380791507166,3.0
1.6412407720497266,-10.535950344450583,0.181884765625,0.0283203125,0.95654296875,1,2,-1,0.9740937116785131,2.449489742783178
1.7860082514827393,-10.567547016945962,0.182373046875,0.031005859375,0.95654296875,-1,1,-1,0.9742667717864121,1.7320508075688772
1.8413700189172824,-10.283207272689248,0.179443359375,0.0322265625,0.9677734375,0,1,-2,0.9847963733101976,2.23606797749979
1.6349061199783477,-10.667440583726288,0.1826171875,0.028076171875,0.94873046875,0,1,-1,0.9665540910534492,1.4142135623730951
1.510363012851737,-10.67568904544753,0.182373046875,0.02587890625,0.94677734375,0,1,-1,0.9645294109841716,1.4142135623730951
1.6335516719846117,-10.431581024499339,0.181884765625,0.028564453125,0.966796875,0,1,-1,0.9841718312665513,1.4142135623730951
1.8625122832016063,-10.746222714449365,0.185302734375,0.0322265625,0.955322265625,0,1,-2,0.9736612788317616,2.23606797749979
1.6773230089603106,-10.767344163077516,0.184326171875,0.02880859375,0.948486328125,0,1,-2,0.9666604302194177,2.23606797749979
0.9454889482838368,-10.514536526130467,0.181640625,0.016357421875,0.9580078125,0,1,-2,0.9752127207495924,2.23606797749979
1.9839874277559044,-10.535869114010497,0.180908203125,0.0341796875,0.95166015625,0,1,-1,0.969305463715793,1.4142135623730951
1.6978044874627227,-10.616364431346907,0.1826171875,0.029296875,0.953369140625,0,1,-2,0.9711436877986834,2.23606797749979
0.9949352001390802,-10.349052093790919,0.177490234375,0.01708984375,0.951416015625,0,1,-2,0.9679810333088361,2.23606797749979
1.7993838347341229,-10.505783008269388,0.181884765625,0.03125,0.959716796875,0,1,-2,0.97729983151051,2.23606797749979
1.735778616527793,-10.603468114975175,0.182861328125,0.030029296875,0.955810546875,0,1,-2,0.9736086613788583,2.23606797749979
1.5098599186616883,-10.51881175077196,0.181396484375,0.026123046875,0.95654296875,0,0,-2,0.9739412452436269,2.0
1.0057403927165631,-10.361886815284894,0.17822265625,0.017333984375,0.95458984375,0,0,-2,0.9712391837265256,2.0
1.7709661738284717,-10.631864393748137,0.1826171875,0.030517578125,0.951904296875,0,1,-2,0.969743342412885,2.23606797749979
1.6806769484942994,-10.661382470167997,0.1826171875,0.02880859375,0.94970703125,1,0,-2,0.967534194460305,2.23606797749979
1.811368952458219,-10.337858066529067,0.177734375,0.03125,0.953857421875,0,0,-2,0.970778065173839,2.0
1.8041596242169955,-10.738201689956044,0.183837890625,0.031005859375,0.948974609375,0,0,-1,0.9671145447068127,1.0
1.7672914185254627,-10.641720059718986,0.18359375,0.030517578125,0.95654296875,1,0,-2,0.9744805994368186,2.23606797749979
1.638447518545057,-10.567341759368011,0.178955078125,0.02783203125,0.938720703125,0,1,-2,0.9560314327603043,2.23606797749979
1.825456655941534,-10.423643415030584,0.17919921875,0.031494140625,0.95361328125,0,0,-2,0.9708153949493741,2.0
1.8373213073206722,-10.563311784165133,0.181884765625,0.03173828125,0.954345703125,0,1,-2,0.9720417210883059,2.23606797749979
1.7138977027053401,-10.558794708701786,0.180908203125,0.029541015625,0.94970703125,-1,1,-2,0.9672351806917288,2.449489742783178
1.4278217721749256,-10.511442464977387,0.180419921875,0.024658203125,0.95166015625,-1,1,-2,0.9689253986682923,2.449489742783178
1.7465180792142923,-10.6465451663296,0.183349609375,0.0302734375,0.954833984375,-1,0,-2,0.9727494528363761,2.23606797749979
1.6379926539411473,-10.628093010067031,0.18310546875,0.0283203125,0.955322265625,0,0,-2,0.9731239818158516,2.0
1.8370802227099534,-10.67860519687766,0.182373046875,0.031494140625,0.94677734375,0,0,-2,0.964696401858369,2.0
1.6078813707780242,-10.529465140860834,0.181640625,0.02783203125,0.956787109375,0,0,-2,0.9742738379326727,2.0
1.7070712443483533,-10.390585808202601,0.17919921875,0.029541015625,0.956787109375,0,0,-2,0.9738719650297646,2.0
1.893862517795543,-10.355593252570678,0.177001953125,0.032470703125,0.94775390625,0,1,-2,0.9646872575003934,2.23606797749979
1.632730052340542,-10.697253863764594,0.184326171875,0.0283203125,0.955322265625,-1,0,-2,0.9733544107554415,2.23606797749979
1.5758242778542606,-10.885513880004297,0.184326171875,0.02685546875,0.93798828125,-1,1,-2,0.9563050609518928,2.449489742783178
1.3867953258184373,-10.487614658383594,0.182861328125,0.0244140625,0.966796875,-2,1,-2,0.984241082906601,3.0
1.608155635561624,-10.263811626566493,0.1787109375,0.028076171875,0.9658203125,0,1,-1,0.982616276400346,1.4142135623730951
1.7434512085889846,-10.737253102222999,0.184326171875,0.030029296875,0.951171875,0,1,-2,0.969332673595559,2.23606797749979
2.5821094191429106,-10.53328624920529,0.18359375,0.045166015625,0.965576171875,0,1,-1,0.9839125864116587,1.4142135623730951
1.7416565059028757,-10.343468630150516,0.177734375,0.030029296875,0.953369140625,0,0,-2,0.9702597513158517,2.0
2.0192690633141983,-10.760753404736024,0.185302734375,0.034912109375,0.954345703125,0,0,-2,0.972795805820016,2.0
1.670597408021643,-10.671017851246392,0.183349609375,0.02880859375,0.95263671875,0,0,-2,0.9705481607022828,2.0
1.6402256009161924,-10.594895293027907,0.182373046875,0.0283203125,0.9541015625,0,1,-2,0.9717879191940544,2.23606797749979
1.5501009226131426,-10.720037941766227,0.1845703125,0.02685546875,0.9541015625,-1,1,-2,0.9721611018874758,2.449489742783178
1.5667627552321788,-10.600238259876466,0.18115234375,0.02685546875,0.947265625,0,1,-2,0.9648054478259029,2.23606797749979
1.7641073931032245,-10.692751195742057,0.180908203125,0.030029296875,0.9375,-1,1,-2,0.9552673901210713,2.449489742783178
2.669733264551356,-10.413859790554689,0.1767578125,0.04541015625,0.94091796875,1,0,-2,0.9584529359791542,2.23606797749979
1.9164411904989755,-10.767865830767187,0.1826171875,0.03271484375,0.93994140625,-1,0,-2,0.958075751365843,2.23606797749979
1.8819601420187182,-10.474930324084221,0.1796875,0.032470703125,0.950927734375,-1,1,-2,0.9683003150992219,2.449489742783178
1.6822348123860589,-10.695946995526205,0.18359375,0.029052734375,0.951171875,-1,1,-2,0.969163898525292,2.449489742783178
1.6844358890977136,-10.48264443781414,0.18017578125,0.029052734375,0.953369140625,0,0,-2,0.9706802211953034,2.0
1.6010095981141053,-10.788245174059332,0.185302734375,0.027587890625,0.95166015625,0,1,-2,0.9699253827330034,2.23606797749979
1.5541130102603975,-10.637670285369428,0.179931640625,0.0263671875,0.9375,0,1,-2,0.9549748027433311,2.23606797749979
1.8344534431346653,-10.403651008782612,0.177978515625,0.031494140625,0.948974609375,0,0,-2,0.9660336651257136,2.0
1.8117301277906361,-10.726523060908013,0.184814453125,0.03125,0.955078125,1,0,-2,0.9732970612497546,2.23606797749979
1.7399210924860522,-10.736328092117068,0.18408203125,0.030029296875,0.950439453125,-1,0,-2,0.9685675541522553,2.23606797749979
1.5953557366047284,-10.70185023689701,0.183837890625,0.027587890625,0.952392578125,-1,0,-2,0.9703654386910998,2.23606797749979
1.4577436316064798,-10.484992021945155,0.1796875,0.025146484375,0.95068359375,-1,0,-2,0.9678425692012556,2.23606797749979
1.5320555555038313,-10.81146472996427,0.1865234375,0.026611328125,0.956298828125,-1,0,-2,0.9746828223553758,2.23606797749979
1.721422377219367,-10.578272936059303,0.181396484375,0.029541015625,0.950927734375,1,0,-2,0.9685251221064618,2.23606797749979
1.678305807544967,-10.627658096666519,0.182861328125,0.029052734375,0.95361328125,-1,1,-2,0.9714219561419717,2.449489742783178
1.6086817354519705,-10.69641969187909,0.183837890625,0.02783203125,0.952880859375,-1,0,-2,0.970851648891935,2.23606797749979
1.5640410957626218,-10.490039306105004,0.178955078125,0.02685546875,0.9462890625,-1,0,-2,0.9634361037430744,2.23606797749979
1.6980194503421375,-10.678721379618807,0.1845703125,0.029541015625,0.958251953125,-1,0,-1,0.9763122848394264,1.4142135623730951
1.6024711397543872,-10.46894438569983,0.1806640625,0.02783203125,0.957275390625,-1,0,-2,0.9745718541691789,2.23606797749979
1.7466182452516186,-10.518349833132257,0.1826171875,0.030517578125,0.962890625,-1,0,-2,0.9805298136507203,2.23606797749979
1.5627173520534698,-10.755441013235219,0.18359375,0.02685546875,0.9462890625,-1,0,-2,0.9643084937134867,2.23606797749979
1.6519351985550514,-9.873137464982424,0.172119140625,0.029052734375,0.96826171875,-2,0,-2,0.9838698165615495,2.8284271247461903
1.4006778887581683,-10.582678517532852,0.181396484375,0.024169921875,0.95068359375,-1,0,-2,0.9681364392958609,2.23606797749979
1.4966991900800104,-10.436937250376461,0.1787109375,0.02587890625,0.949951171875,-2,0,-2,0.9669615017763173,2.8284271247461903
1.5966693969071033,-10.524045517235374,0.1806640625,0.027587890625,0.9521484375,-1,0,-2,0.9695293921392132,2.23606797749979
1.6721594128889057,-10.736803794617765,0.183837890625,0.02880859375,0.94873046875,-1,1,-2,0.9668070166470125,2.449489742783178
1.5742032223485274,-10.491498952708978,0.179443359375,0.027099609375,0.94873046875,-1,0,-1,0.9659315764517991,1.4142135623730951
1.6645233820206975,-10.491360893820554,0.180419921875,0.02880859375,0.953857421875,-1,0,-2,0.9711978503627648,2.23606797749979
1.209048294407559,-10.468914500891639,0.179931640625,0.02099609375,0.953125,-2,1,-2,0.9701873514305177,3.0
1.3144167412940482,-10.52642599183158,0.181884765625,0.02294921875,0.95849609375,-2,0,-2,0.9758706350442692,2.8284271247461903
1.247076361507797,-10.517801747467404,0.181396484375,0.021728515625,0.956298828125,-2,1,-2,0.9735934786183214,3.0
1.3746829299366066,-10.370516496642797,0.177490234375,0.023681640625,0.94970703125,-1,0,-2,0.9664404009595586,2.23606797749979
1.2799571468956952,-10.659823589805686,0.185791015625,0.0224609375,0.966552734375,-1,0,-2,0.9845034197645721,2.23606797749979
1.4434586150386626,-10.50799904822222,0.18017578125,0.02490234375,0.95068359375,-1,1,-1,0.9679270294287199,1.7320508075688772
1.5757381127690095,-10.344906400184131,0.178466796875,0.02734375,0.956787109375,-1,1,-2,0.9736732772943156,2.449489742783178
1.3090242722910774,-10.580774642536914,0.182373046875,0.022705078125,0.95556640625,-1,1,-2,0.9730789307927047,2.449489742783178
1.414579355432221,-10.388960203224551,0.17822265625,0.0244140625,0.951416015625,-1,1,-2,0.9682725837471129,2.449489742783178
1.253567461302651,-10.526039087606408,0.183349609375,0.02197265625,0.9658203125,-1,1,-2,0.9833151849321984,2.449489742783178
1.7088624455972115,-10.577729549758976,0.18017578125,0.029296875,0.944580078125,-1,0,-2,0.9620567254712399,2.23606797749979
1.459100604764016,-10.56615247979957,0.18212890625,0.025390625,0.95556640625,-2,1,-2,0.9730995730567618,3.0
1.0710677542725278,-10.42067324880711,0.180908203125,0.018798828125,0.962890625,-2,1,-2,0.9799181239316274,3.0
1.2171536815474433,-10.573902700960993,0.1826171875,0.021240234375,0.95751953125,-2,1,-2,0.9750096601839054,3.0
1.161600650579345,-10.551780581530723,0.18212890625,0.020263671875,0.95703125,-2,1,-2,0.9744179638975471,3.0
1.14337713993662,-10.699235833668874,0.183837890625,0.019775390625,0.952392578125,-1,1,-2,0.9701747569234138,2.449489742783178
1.1173672481922,-10.644966802253599,0.183349609375,0.019287109375,0.954833984375,0,1,-1,0.9724695417150329,1.4142135623730951
1.4896175341213433,-10.44162672333661,0.17919921875,0.025634765625,0.95166015625,0,1,-2,0.9687241889222306,2.23606797749979
1.2662987344749286,-10.660365620307935,0.182373046875,0.021728515625,0.94873046875,0,0,-1,0.9663444308073242,1.0
1.6806472133139283,-10.635053456835815,0.181640625,0.02880859375,0.947021484375,0,0,-2,0.9647139180047479,2.0
1.5078512210247197,-10.720229365401341,0.183349609375,0.02587890625,0.9482421875,0,0,-2,0.9661521842864335,2.0
1.4209459676817,-10.599949189563256,0.180908203125,0.0244140625,0.946533203125,-1,0,-2,0.9639755852840582,2.23606797749979
1.4606707310382372,-11.076619977121256,0.1875,0.02490234375,0.937744140625,-1,0,-2,0.956629735059894,2.23606797749979
1.6134564889777645,-10.565357930731802,0.18115234375,0.02783203125,0.950439453125,-1,1,-2,0.9679493518083311,2.449489742783178
1.325470952975716,-10.499531023688359,0.1806640625,0.02294921875,0.9541015625,-1,1,-2,0.9713269077325001,2.449489742783178
1.2662157402986893,-10.476230177676822,0.1806640625,0.02197265625,0.956298828125,-1,1,-2,0.9734627623976856,2.449489742783178
1.299713695377138,-10.370258972394414,0.1787109375,0.0224609375,0.956298828125,0,0,-2,0.9731133241142863,2.0
1.2726833684367562,-10.377574198463613,0.1806640625,0.022216796875,0.966064453125,0,0,-2,0.9830633840877678,2.0
1.3577032883872628,-10.712147459769461,0.184326171875,0.0234375,0.9541015625,0,0,-2,0.9720263605526773,2.0
1.4189347960179761,-10.679102235726694,0.18505859375,0.024658203125,0.96044921875,0,1,-2,0.9784259869298069,2.23606797749979
1.513766677043265,-10.664954465989153,0.182373046875,0.02587890625,0.94775390625,1,1,-2,0.9654880179615389,2.449489742783178
1.3024450319712122,-10.484315210620458,0.181640625,0.022705078125,0.960693359375,-1,1,-2,0.9779777952337547,2.449489742783178
1.4441556864391982,-10.538005734602379,0.182373046875,0.025146484375,0.95947265625,-1,1,-2,0.9769749495224141,2.449489742783178
1.343444113709491,-10.41969218324458,0.179443359375,0.023193359375,0.955078125,0,1,-2,0.9720658804815644,2.23606797749979
1.4740604866668094,-10.62749565250596,0.18359375,0.025634765625,0.9580078125,-1,0,-2,0.9757780357533912,2.23606797749979
1.020505608911612,-10.650126793320764,0.18310546875,0.017578125,0.953125,0,1,-2,0.9707130723286221,2.23606797749979
1.2426933310059256,-10.545530899527565,0.181884765625,0.021484375,0.956298828125,0,1,-2,0.9736791540383568,2.23606797749979
1.371105729576736,-10.487349899119033,0.18115234375,0.02392578125,0.958251953125,-2,0,-2,0.9755180266516955,2.8284271247461903
1.034720032480358,-10.527479089261336,0.1826171875,0.01806640625,0.9619140625,-1,1,-2,0.9792620159285532,2.449489742783178
1.4529707150661806,-10.867695657471481,0.18505859375,0.02490234375,0.943359375,-1,1,-2,0.9616619573661845,2.449489742783178
1.2767303595098798,-10.448914102618268,0.1787109375,0.02197265625,0.948486328125,-1,1,-2,0.9654256633448557,2.449489742783178
1.1737020745728843,-10.459652426101846,0.179443359375,0.020263671875,0.951416015625,-1,1,-2,0.9684022771603716,2.449489742783178
1.323818551027838,-10.572143088961422,0.18212890625,0.02294921875,0.955078125,-1,1,-2,0.972559422342189,2.449489742783178
1.2937343493639482,-10.47087615387994,0.1806640625,0.0224609375,0.956787109375,-1,1,-2,0.9739535768498163,2.449489742783178
1.3170295429555317,-10.675011068460597,0.182861328125,0.022705078125,0.949462890625,-1,1,-2,0.967178146243122,2.449489742783178
1.416651107882145,-10.5770569199469,0.18115234375,0.0244140625,0.949462890625,-1,1,-2,0.9668981325702583,2.449489742783178
1.252539249822436,-10.651862249544415,0.184326171875,0.021728515625,0.959228515625,0,1,-2,0.9770197598910161,2.23606797749979
1.3538866985182958,-10.305540404262505,0.177978515625,0.0234375,0.9580078125,0,1,-1,0.9746818133326196,1.4142135623730951
1.3143879561583862,-10.384321744940197,0.178955078125,0.022705078125,0.955810546875,0,1,-1,0.9726840402087791,1.4142135623730951
0.9560104609630311,-10.80651368023724,0.1845703125,0.016357421875,0.946533203125,0,1,-2,0.9644992846678617,2.23606797749979
1.4091072129419115,-10.319716172260419,0.177734375,0.0244140625,0.955322265625,-1,1,-2,0.9720217002224166,2.449489742783178
1.1323185736926211,-10.48425574883192,0.1796875,0.01953125,0.950439453125,-1,1,-2,0.9674731114813278,2.449489742783178
1.4999331533317577,-10.62653697858739,0.18212890625,0.02587890625,0.950439453125,-1,0,-2,0.9680784112545154,2.23606797749979
1.5172563906106469,-10.528744160793748,0.18017578125,0.026123046875,0.94873046875,-1,1,-2,0.9660410074430982,2.449489742783178
0.9451313603800134,-10.436983227580297,0.179443359375,0.016357421875,0.95361328125,-1,1,-2,0.9704873902584071,2.449489742783178
1.466532426186032,-10.584634404220367,0.18212890625,0.025390625,0.953857421875,-1,1,-2,0.9714214345976383,2.449489742783178
1.3501394797885538,-10.612049101092687,0.18115234375,0.023193359375,0.9462890625,-1,1,-2,0.9637515724357315,2.449489742783178
1.2284040453750076,-10.63437685312321,0.1826171875,0.021240234375,0.952392578125,-1,0,-2,0.9699751582356629,2.23606797749979
1.2668017635048308,-10.37869058773205,0.180908203125,0.022216796875,0.966796875,-1,1,-2,0.983828014203228,2.449489742783178
1.1659852953282974,-10.4520937933693,0.180419921875,0.020263671875,0.957763671875,-1,0,-2,0.9748195811383363,2.23606797749979
1.163887437322047,-10.417687657589472,0.177978515625,0.02001953125,0.947998046875,-1,0,-2,0.964768070851416,2.23606797749979
1.1287158333169138,-10.527074928220847,0.180908203125,0.01953125,0.953369140625,-1,0,-2,0.970578160675651,2.23606797749979
1.0278550477986048,-10.614808286227623,0.181884765625,0.017822265625,0.950439453125,-2,0,-2,0.9678506368107728,2.8284271247461903
1.3427538944681985,-10.24811954385952,0.177734375,0.0234375,0.962646484375,-1,0,-2,0.9791971600972083,2.23606797749979
0.9915844276107211,-10.595533888251316,0.181396484375,0.01708984375,0.94921875,-1,1,-2,0.966546937636539,2.449489742783178
1.113937667027282,-10.635446315612132,0.182861328125,0.019287109375,0.95361328125,-1,0,-2,0.9711789475107426,2.23606797749979
1.1158796350002556,-10.563193755542354,0.181396484375,0.019287109375,0.9521484375,-1,1,-2,0.9694654837410893,2.449489742783178
0.9872574271299983,-10.353238102986088,0.177978515625,0.01708984375,0.9541015625,-1,0,-2,0.9707101556841873,2.23606797749979
1.1211410033662892,-10.704979486251988,0.182861328125,0.019287109375,0.947265625,-1,0,-2,0.9649468494266007,2.23606797749979
1.1675691900449705,-10.453288781647645,0.182373046875,0.0205078125,0.968017578125,-1,0,-2,0.9852606407235582,2.23606797749979
1.2151751036014398,-10.769177804241181,0.1826171875,0.020751953125,0.940185546875,-1,0,-2,0.9579814942270832,2.23606797749979
1.1833145461229364,-10.295357228545292,0.17724609375,0.0205078125,0.95556640625,-1,0,-2,0.9720822521148655,2.23606797749979
1.0604030594678224,-10.737155413657469,0.18408203125,0.018310546875,0.95068359375,-1,0,-2,0.9685147215099018,2.23606797749979
1.0460567851355242,-10.412874384438773,0.179443359375,0.01806640625,0.956298828125,0,0,-2,0.9731565973325278,2.0
1.2916097104359512,-10.433607608095317,0.178955078125,0.022216796875,0.95166015625,0,0,-2,0.9685946309183653,2.0
1.3155783928755143,-10.670808170527387,0.18359375,0.022705078125,0.9541015625,0,0,-2,0.9718703499833021,2.0
1.4201615622978876,-10.64574679275973,0.184326171875,0.024658203125,0.959716796875,0,1,-2,0.977568665017172,2.23606797749979
1.2111348903029606,-10.56372071689181,0.181884765625,0.02099609375,0.955078125,-1,0,-1,0.9724696030070737,1.4142135623730951
1.0971295569206343,-10.398766471518885,0.178466796875,0.01904296875,0.952392578125,-2,0,-2,0.9691566721192297,2.8284271247461903
0.77351614721662,-10.812289286768406,0.182861328125,0.01318359375,0.937744140625,-1,0,-2,0.9554978522970754,2.23606797749979
0.7284513662823883,-10.580170036707345,0.184326171875,0.0126953125,0.966064453125,0,1,-2,0.9835740115462944,2.23606797749979
0.8336557692655507,-10.513918374737361,0.180419921875,0.014404296875,0.95166015625,-1,1,-2,0.9687186820597704,2.449489742783178
0.1990424131903207,-10.43790323602592,0.177001953125,0.00341796875,0.941162109375,-1,0,-2,0.9576677346781817,2.23606797749979
1.2892738859334065,-10.269497729839298,0.17724609375,0.022216796875,0.95751953125,1,1,-2,0.9740397407386613,2.449489742783178
1.0583936850771491,-10.6628033639091,0.181640625,0.01806640625,0.9443359375,0,1,-2,0.9618160294667503,2.23606797749979
1.118400680698054,-10.70628691362571,0.181884765625,0.01904296875,0.941650390625,0,1,-2,0.9592445781913441,2.23606797749979
1.3392717495332818,-10.474970868462007,0.182861328125,0.0234375,0.968017578125,0,1,-2,0.9854164669259792,2.23606797749979
1.3999006273901478,-10.648975235429587,0.183349609375,0.024169921875,0.954345703125,0,1,-2,0.9720992672842416,2.23606797749979
1.1272443617626746,-10.704387974821568,0.18505859375,0.01953125,0.958251953125,0,1,-2,0.9761531429622953,2.23606797749979
0.8428245683611106,-10.522727179781961,0.181640625,0.0146484375,0.957275390625,-1,1,-2,0.9744660419264636,2.449489742783178
1.1119412050231718,-10.580148336369781,0.179931640625,0.01904296875,0.943359375,-1,0,-2,0.9605544962974294,2.23606797749979
0.9463355920330165,-10.613070649883504,0.18212890625,0.016357421875,0.951904296875,-1,0,-2,0.9693091839817191,2.23606797749979
0.8951531699553003,-10.427675935449365,0.178955078125,0.015380859375,0.951904296875,0,1,-2,0.9687018536324407,2.23606797749979
0.9291111410775543,-10.557265907573795,0.180908203125,0.01611328125,0.9501953125,-2,1,-2,0.9673978228668547,3.0
1.0276910820868566,-10.524324177376844,0.1796875,0.017578125,0.94677734375,0,1,-2,0.9638381227016658,2.23606797749979
1.7314407883717262,-10.909090839435716,0.18701171875,0.02978515625,0.949462890625,0,1,-2,0.9681633742073942,2.23606797749979
1.0327728536537581,-10.487701799011695,0.1806640625,0.017822265625,0.955322265625,0,1,-2,0.972418514750668,2.23606797749979
0.977415993902701,-10.728110405104694,0.1845703125,0.016845703125,0.95361328125,0,1,-2,0.9714567762625956,2.23606797749979
1.174015987807916,-10.55186778429248,0.179443359375,0.02001953125,0.943359375,0,0,-2,0.9604830093529223,2.0
1.14364247929014,-10.732414929430867,0.182861328125,0.01953125,0.9443359375,0,1,-2,0.9620759314649782,2.23606797749979
0.9319495677566754,-10.668699224700152,0.180419921875,0.015869140625,0.9375,-1,1,-1,0.954834764675835,1.7320508075688772
1.1754405499615188,-10.808636978540619,0.182861328125,0.02001953125,0.9375,-1,1,-2,0.955377044394049,2.449489742783178
1.0341244698494831,-10.558913195762882,0.181640625,0.017822265625,0.953857421875,0,1,-2,0.9711616400313701,2.23606797749979
0.9344873631858969,-10.52101706852089,0.18115234375,0.01611328125,0.954833984375,0,1,-2,0.971999869956883,2.23606797749979
1.0070388884317605,-10.510907116998542,0.177978515625,0.01708984375,0.939453125,0,0,-2,0.9563161552832533,2.0
0.9627596406367214,-10.438816833709957,0.177001953125,0.016357421875,0.94091796875,0,0,-1,0.9575614239186369,1.0
1.0372625222241294,-10.281558917751132,0.1787109375,0.01806640625,0.96484375,0,0,-2,0.9814211410658431,2.0
1.7425246871178113,-10.628237602875936,0.185546875,0.030517578125,0.967529296875,0,1,-2,0.9856327438292181,2.23606797749979
0.8220741452440073,-10.445735253115664,0.1796875,0.01416015625,0.95458984375,0,0,-1,0.9714576045674478,1.0
0.8402470109301824,-10.612239765391315,0.181640625,0.014404296875,0.949462890625,0,0,-2,0.9667887985971054,2.0
1.2741765678664203,-10.6021336578512,0.182373046875,0.02197265625,0.95361328125,0,1,-2,0.9711441788043335,2.23606797749979
0.9905286486997433,-10.474007321392989,0.180419921875,0.01708984375,0.955322265625,0,1,-2,0.9723600373152239,2.23606797749979
0.06004465308795174,-10.44221645588395,0.1796875,0.0009765625,0.95458984375,0,1,-2,0.971354889379374,2.23606797749979
1.13618291286655,-10.536909236905974,0.1806640625,0.01953125,0.951171875,0,0,-2,0.9683743640744431,2.0
1.3135048250831378,-10.525061674257952,0.181396484375,0.022705078125,0.9560546875,0,0,-2,0.9733759657023563,2.0
1.206591749811385,-10.124860709773618,0.175048828125,0.02099609375,0.9599609375,-1,0,-2,0.976016357294576,2.23606797749979
1.2324376638986392,-10.568922011785824,0.180908203125,0.021240234375,0.949462890625,-1,0,-2,0.9667774853544129,2.23606797749979
0.6680317494274558,-10.377156822230429,0.1806640625,0.01171875,0.96630859375,-1,0,-2,0.9831221342924128,2.23606797749979
0.9839175622504681,-10.626895417360222,0.183349609375,0.01708984375,0.95654296875,-1,1,-2,0.9741065614615415,2.449489742783178
1.1261648671922362,-10.523117639585106,0.18212890625,0.01953125,0.959716796875,0,1,-1,0.9770408069381717,1.4142135623730951
0.04629126246135622,-10.584989016041733,0.1806640625,0.000732421875,0.946533203125,0,1,-2,0.963620851029532,2.23606797749979
1.2300798843935759,-10.48002410963562,0.178466796875,0.02099609375,0.9443359375,0,1,-2,0.9612812264855614,2.23606797749979
0.16005418687465434,-10.822270942032791,0.184814453125,0.002685546875,0.946533203125,0,1,-2,0.9644110632214787,2.23606797749979
1.1504907254294234,-10.404119184983605,0.178466796875,0.019775390625,0.951416015625,0,1,-1,0.9682117012559516,1.4142135623730951
0.8503608578209869,-10.722649229698995,0.181396484375,0.014404296875,0.937744140625,0,1,-2,0.9552362229252995,2.23606797749979
0.9094477378449897,-10.635096251785804,0.182373046875,0.015625,0.951171875,0,0,-1,0.9686237683654508,1.0
1.010277004551354,-10.72080473588501,0.18359375,0.017333984375,0.94921875,0,1,-1,0.966966063212633,1.4142135623730951
0.9362532655722376,-10.483917558266581,0.18017578125,0.01611328125,0.953125,0,1,-2,0.9701392763962757,2.23606797749979
1.177075229724881,-10.632389191771784,0.1826171875,0.020263671875,0.9521484375,0,1,-2,0.9697145459370811,2.23606797749979
0.8396893471884695,-10.743845852947542,0.18408203125,0.014404296875,0.94970703125,0,1,-2,0.9674901153000364,2.23606797749979
1.1073667231108004,-10.59899197301807,0.181884765625,0.01904296875,0.951416015625,0,1,-2,0.9688328738296533,2.23606797749979
0.9812861132935247,-10.144944746527186,0.1748046875,0.016845703125,0.956298828125,1,1,-2,0.9722900313995801,2.449489742783178
1.0636592783311711,-10.576917521215499,0.181640625,0.018310546875,0.95263671875,0,0,-2,0.9699718092233499,2.0
0.904910133302529,-10.604837270104788,0.182861328125,0.015625,0.9560546875,0,1,-2,0.9735106426944502,2.23606797749979
0.9260032616431333,-10.442466545622395,0.1787109375,0.015869140625,0.94921875,0,1,-1,0.9660257057438314,1.4142135623730951
0.725572830109612,-10.525688602889606,0.181640625,0.0126953125,0.95703125,-2,1,-1,0.9741987995714354,2.449489742783178
0.8406596859788809,-10.698934133120808,0.18310546875,0.014404296875,0.94873046875,0,1,-1,0.9663460036597735,1.4142135623730951
0.8911963650174034,-10.552183331360606,0.181884765625,0.015380859375,0.955810546875,0,1,-2,0.9730839842064308,2.23606797749979
1.0634220430393322,-10.329876088052323,0.179931640625,0.0185546875,0.96630859375,0,1,-2,0.9830930627775426,2.23606797749979
0.8467156482150849,-10.342697009706844,0.177734375,0.0146484375,0.953369140625,-1,1,-2,0.9699055639977961,2.449489742783178
0.9636663122459954,-10.689264986096731,0.183837890625,0.0166015625,0.953369140625,0,1,-1,0.9710739931657844,1.4142135623730951
0.9954219490341476,-10.526575995621274,0.180419921875,0.01708984375,0.950439453125,0,1,-2,0.9675632098345459,2.23606797749979
1.108069749561298,-10.39037674008164,0.17822265625,0.01904296875,0.951416015625,0,1,-2,0.9681520462444777,2.23606797749979
0.7039047511783694,-10.662917022892671,0.18115234375,0.011962890625,0.94189453125,0,1,-2,0.9592312496978407,2.23606797749979
0.7542792683476118,-10.752622340521556,0.184326171875,0.012939453125,0.9501953125,0,1,-1,0.9679951957433667,1.4142135623730951
0.9650568664581236,-10.633235408524628,0.1826171875,0.0166015625,0.9521484375,0,1,-1,0.9696449329943115,1.4142135623730951
1.0777331453118821,-10.676678493946484,0.183349609375,0.0185546875,0.952392578125,0,0,-2,0.9700582346198459,2.0
1.0934184263383946,-10.37621242662367,0.177978515625,0.018798828125,0.951904296875,0,0,-2,0.9685822310841965,2.0
1.1113099175878955,-10.52205816534571,0.179931640625,0.01904296875,0.9482421875,0,1,-2,0.965350338536017,2.23606797749979
0.9535538014611271,-10.481199896425197,0.179443359375,0.016357421875,0.949951171875,0,0,-1,0.9668891939725399,1.0
0.7705296556620542,-10.700872739183813,0.182861328125,0.01318359375,0.94775390625,0,0,-2,0.9653235412440421,2.0
0.8232903241420954,-10.633291915928993,0.1826171875,0.01416015625,0.95263671875,0,0,-2,0.9700856998771815,2.0
1.2179790493870735,-10.724816532479872,0.18359375,0.02099609375,0.94921875,-1,0,-2,0.9670386426319187,2.23606797749979
1.082190822979467,-10.524904749275182,0.17919921875,0.0185546875,0.944580078125,-1,0,-1,0.9616070717395251,1.4142135623730951
1.040002440886761,-10.358413795229678,0.1787109375,0.01806640625,0.95751953125,-1,0,-1,0.9742215594730691,1.4142135623730951
1.1271923643452686,-10.38394950212226,0.1787109375,0.01953125,0.955078125,-1,0,-1,0.9718504482492185,1.4142135623730951
0.9871700959578233,-10.552742582322608,0.181396484375,0.01708984375,0.95361328125,-1,0,-1,0.9708630374462717,1.4142135623730951
0.8321459399519371,-10.528334372741837,0.179931640625,0.014404296875,0.94775390625,-2,1,-2,0.9647903118702017,3.0
0.7149033811758438,-10.208959369478988,0.17529296875,0.012451171875,0.953369140625,-2,0,-2,0.9694304383865303,2.8284271247461903
0.7953003684575933,-10.69779421953422,0.181396484375,0.013671875,0.9404296875,-2,0,-2,0.957861995196058,2.8284271247461903
0.0036718750000000002,-10.628692805807894,0.18359375,0.0,0.958740234375,0,-1,-2,0.9761605923455896,2.23606797749979
0.9279448229129956,-10.593042822361042,0.18359375,0.01611328125,0.96142578125,0,0,-2,0.9789309657600361,2.0
0.5815361399608449,-10.49135999404678,0.1806640625,0.010009765625,0.95556640625,0,0,-1,0.9725465827611608,1.0
0.8124930322989792,-10.61542627319954,0.181640625,0.013916015625,0.94873046875,0,1,-1,0.9660623553766395,1.4142135623730951
0.8160508825586662,-10.783214839480713,0.18359375,0.013916015625,0.944091796875,0,0,-2,0.9618781843126519,2.0
0.8607705242115228,-10.581228321069075,0.182861328125,0.014892578125,0.958251953125,0,1,-1,0.9756571425837692,1.4142135623730951
0.11172995264044602,-10.626684731138067,0.1826171875,0.001953125,0.953369140625,-1,0,-1,0.9707036469302702,1.4142135623730951
0.7360370156642876,-10.54927074437898,0.1806640625,0.0126953125,0.94970703125,-1,1,-2,0.9668216586548757,2.449489742783178
0.7456191022996348,-10.726630087367093,0.184814453125,0.012939453125,0.955078125,-1,1,-1,0.9728813064215914,1.7320508075688772
1.0861203598027573,-10.59661551137125,0.18212890625,0.018798828125,0.953369140625,-1,0,-1,0.9707919719109473,1.4142135623730951
0.6767761092600795,-10.252087613497538,0.17626953125,0.01171875,0.9541015625,-1,1,-1,0.9703185396113992,1.7320508075688772
0.13060912714860307,-10.428300572011757,0.179443359375,0.002197265625,0.95458984375,0,1,-2,0.9713117506705361,2.23606797749979
0.6494313770850045,-10.654957573513002,0.18017578125,0.010986328125,0.93798828125,0,0,-1,0.9551994699103675,1.0
0.9185796100371931,-10.500082481931724,0.18115234375,0.015869140625,0.956787109375,0,1,-2,0.9739145619285412,2.23606797749979
0.6692540348734021,-10.613340397691449,0.181884765625,0.011474609375,0.95068359375,0,0,-1,0.9679943336880568,1.0
1.5237724107353559,-10.631971866454007,0.183349609375,0.0263671875,0.956298828125,0,0,-2,0.9740737941798217,2.0
0.8341385062768455,-10.611155459998038,0.179931640625,0.01416015625,0.940185546875,0,1,-2,0.9573530006615487,2.23606797749979
0.036741233717106005,-10.625654507839734,0.18310546875,0.00048828125,0.95556640625,1,1,-2,0.9729516986255157,2.449489742783178
0.7535043712205294,-10.588577561693413,0.181640625,0.012939453125,0.95166015625,0,0,-1,0.9689261061047634,1.0
0.8746505900003354,-10.725324855928271,0.184326171875,0.01513671875,0.95263671875,-1,1,-2,0.9704236063716584,2.449489742783178
0.5854560780117776,-10.627112579166127,0.18310546875,0.01025390625,0.955810546875,-2,0,-2,0.9732453733756085,2.8284271247461903
0.7655425839013232,-10.487502275955759,0.180419921875,0.01318359375,0.95458984375,0,0,-1,0.9715796030918905,1.0
0.6540428901033188,-10.55311886698426,0.18115234375,0.01123046875,0.952392578125,0,0,-2,0.9695328348962954,2.0
0.7419010479156646,-10.093802380118746,0.172607421875,0.0126953125,0.94970703125,0,0,-2,0.9653486097009181,2.0
0.6679575769017263,-10.492257061230616,0.18017578125,0.011474609375,0.952880859375,0,0,-1,0.9698334449649565,1.0
1.1007570046252098,-10.446889103009367,0.177978515625,0.018798828125,0.9453125,0,0,-2,0.962104708760539,2.0
0.981432425285871,-10.801690923515919,0.18505859375,0.016845703125,0.949462890625,0,1,-1,0.967476222709625,1.4142135623730951
1.5833693878856079,-10.764089799684657,0.185302734375,0.02734375,0.953857421875,0,1,-2,0.9720744648929608,2.23606797749979
0.11795928308086567,-10.696901892943885,0.181640625,0.001953125,0.94189453125,0,0,-2,0.9592509782879106,2.0
0.8205624592952366,-10.464126188643498,0.180419921875,0.01416015625,0.956298828125,0,1,-1,0.9732724731069167,1.4142135623730951
0.7210971544124191,-10.5369260352921,0.181884765625,0.012451171875,0.957275390625,0,1,-2,0.9744810275955957,2.23606797749979
0.9349767886049094,-10.684024737887759,0.183837890625,0.01611328125,0.953857421875,0,1,-2,0.9715451554756026,2.23606797749979
0.8075022433960285,-10.468281177521144,0.18017578125,0.013916015625,0.955078125,0,0,-2,0.972024275670849,2.0
0.7713867896715978,-10.756213905278939,0.18359375,0.01318359375,0.946533203125,0,0,-2,0.9642642670976147,2.0
0.9100508118173166,-10.493768277290444,0.179931640625,0.015625,0.950927734375,0,1,-2,0.9679272141677672,2.23606797749979
0.8651777381103201,-10.307117235818575,0.17724609375,0.014892578125,0.9541015625,0,1,-1,0.9705399312742287,1.4142135623730951
0.5830620387708983,-10.814776263568806,0.185791015625,0.010009765625,0.9521484375,0,1,-1,0.970157277934113,1.4142135623730951
0.7625790129935471,-10.51250717223577,0.181640625,0.01318359375,0.958251953125,0,1,-2,0.9754044953056311,2.23606797749979
1.77970262584267,-10.54682478692576,0.181640625,0.03076171875,0.955078125,0,0,-2,0.9726838257339125,2.0
0.8128552562565206,-10.812248949254371,0.184814453125,0.013916015625,0.94775390625,0,0,-2,0.9657057027826345,2.0
0.9962883168246423,-10.411372893847266,0.17822265625,0.01708984375,0.949951171875,0,0,-2,0.9666760609981457,2.0
0.7996151229994533,-10.834941133969721,0.18505859375,0.013671875,0.946533203125,0,1,-1,0.9645510395540589,1.4142135623730951
1.7660281933444808,-10.543396425289814,0.18212890625,0.030517578125,0.95751953125,1,1,-2,0.9751645572884899,2.449489742783178
0.6951931756025811,-10.566605857244983,0.18310546875,0.011962890625,0.9609375,1,1,-2,0.9783003640725648,2.449489742783178
0.9818497528799046,-10.551211149107829,0.181640625,0.016845703125,0.95458984375,1,1,-1,0.9718636036784255,1.7320508075688772
0.9258150443643722,-10.417676411933295,0.17919921875,0.015869140625,0.95458984375,1,0,-2,0.9713938230272189,2.23606797749979
0.04576837190166043,-10.32773916892348,0.17822265625,0.000732421875,0.9580078125,0,0,-2,0.9744448780991379,2.0
0.9914919665731885,-10.66100708065429,0.183349609375,0.01708984375,0.953857421875,0,0,-1,0.9714695688920916,1.0
0.7530115636479976,-10.724799887476573,0.18408203125,0.012939453125,0.951904296875,0,0,-2,0.9696264301706035,2.0
0.6789881957225681,-10.666683447565683,0.18408203125,0.01171875,0.956787109375,0,1,-1,0.9744049958804895,1.4142135623730951
0.9350392619673259,-10.827916608523678,0.186279296875,0.01611328125,0.953369140625,0,1,-2,0.9715309220878855,2.23606797749979
0.6964240255213395,-10.476016423114785,0.179931640625,0.011962890625,0.95263671875,0,1,-1,0.9695541366839071,1.4142135623730951
0.8925845195575753,-10.545183062967332,0.181396484375,0.015380859375,0.954345703125,0,0,-2,0.9715538978625292,2.0
0.9078430089330538,-10.630354099282203,0.1826171875,0.015625,0.952880859375,0,0,-1,0.970347932423545,1.0
0.8658920016125955,-10.630916038512181,0.1826171875,0.014892578125,0.952392578125,0,1,-1,0.9698569218813688,1.4142135623730951
1.0480601333932416,-10.619213719825664,0.1826171875,0.01806640625,0.953857421875,0,0,-2,0.9713492747056652,2.0
0.01268809823505965,-10.204531405787147,0.17626953125,0.000244140625,0.958740234375,-1,1,-2,0.9748096451416397,2.449489742783178
0.7710697284581173,-10.631586096964526,0.181640625,0.01318359375,0.947265625,0,1,-1,0.9646135433950719,1.4142135623730951
0.807008937842672,-10.67111424066237,0.183837890625,0.013916015625,0.955078125,0,1,-1,0.9727097462109857,1.4142135623730951
0.6952994462350509,-10.330214308908221,0.177734375,0.011962890625,0.95458984375,0,1,-1,0.9710686837703066,1.4142135623730951
0.6788115393933671,-10.492958186166529,0.18115234375,0.01171875,0.95751953125,0,1,-2,0.9745753708528142,2.23606797749979
-0.0012818359374999998,-10.535268204702044,0.180908203125,0.0,0.952392578125,-1,1,-1,0.969422199470128,1.7320508075688772
0.0036376953125,-10.545930044870444,0.181884765625,0.0,0.95654296875,0,1,-1,0.9736819393577785,1.4142135623730951
0.9588135220413314,-10.584653696617327,0.18212890625,0.0166015625,0.95361328125,-1,2,-1,0.9709916789270927,2.449489742783178
0.909960384208256,-10.684721097109351,0.182373046875,0.015625,0.9453125,-1,3,-2,0.9628705995655495,3.7416573867739413
0.6486784398485426,-10.435591738832189,0.179443359375,0.01123046875,0.953369140625,-1,2,-1,0.9701746033308546,2.449489742783178
1.6648140022984497,-10.243162515218955,0.1787109375,0.029296875,0.9677734375,-2,1,-1,0.9845716491944407,2.449489742783178
0.6995092179198185,-10.350709973726083,0.177001953125,0.011962890625,0.94873046875,0,1,-2,0.9651747533461311,2.23606797749979
0.8104236869271598,-10.621519632973623,0.18212890625,0.013916015625,0.951171875,0,0,-1,0.9685517692791192,1.0
0.9251612244488696,-10.739021441361539,0.184814453125,0.015869140625,0.954345703125,1,0,-1,0.972205704972574,1.4142135623730951
0.8085960701734733,-10.525617113878557,0.180908203125,0.013916015625,0.95361328125,0,0,-2,0.9707212388864185,2.0
0.9493905159529286,-10.749651817037948,0.184814453125,0.016357421875,0.953369140625,0,0,-1,0.9712552010827744,1.0
0.8935370935785965,-10.432276588710334,0.179443359375,0.015380859375,0.95361328125,0,2,-1,0.9704714216478971,2.23606797749979
1.5295551322699377,-10.68447262887527,0.1865234375,0.02685546875,0.967041015625,-1,2,-1,0.9852312088234061,2.449489742783178
0.6409328215771729,-10.623769235998212,0.1806640625,0.010986328125,0.943359375,-1,0,-1,0.9605660379615056,1.4142135623730951
0.7927153002970881,-10.491240066472919,0.177734375,0.013671875,0.938232421875,-3,4,-2,0.9550164949780104,5.385164807134504
0.6823935447109998,-10.844632992563092,0.18603515625,0.011962890625,0.95068359375,-3,1,-1,0.9687886691835752,3.3166247903554
0.44513283019954575,-10.1007665683062,0.17578125,0.0078125,0.966552734375,-1,0,-1,0.9824379223826826,1.4142135623730951
0.5153341879525606,-10.21553709514151,0.176025390625,0.009033203125,0.956298828125,-2,1,-2,0.9724062862695971,3.0
0.8521309902790114,-10.482087273637031,0.1806640625,0.014892578125,0.957275390625,-2,-2,-1,0.9742881841931881,3.0
0.8848463978383834,-10.754368260302616,0.1845703125,0.01513671875,0.9521484375,1,-1,-2,0.9699907048753383,2.449489742783178
1.0979724949922067,-10.598195545121314,0.1826171875,0.01904296875,0.955322265625,-1,1,-1,0.9728064057293757,1.7320508075688772
0.8804855727084459,-10.555487831386074,0.18212890625,0.015380859375,0.956787109375,-2,1,-2,0.9740888470735629,3.0
0.780581564029102,-10.294896492499921,0.177978515625,0.013671875,0.959228515625,-2,1,-1,0.9756959656461817,2.449489742783178
0.6397340177071039,-10.420866375643719,0.178955078125,0.01123046875,0.9521484375,-3,2,-1,0.9688847663415712,3.7416573867739413
0.5406027070823387,-10.390680292144465,0.178466796875,0.009521484375,0.952392578125,-3,2,-1,0.969016346156818,3.7416573867739413
0.501109306636937,-10.317486963253806,0.177734375,0.0087890625,0.956298828125,-2,0,-1,0.9727148628192733,2.23606797749979
0.7398613419316488,-10.680726255000907,0.184326171875,0.012939453125,0.956298828125,-2,2,0,0.9739871743295773,2.8284271247461903
0.7203965350718975,-10.325959589210505,0.176025390625,0.012451171875,0.94580078125,-2,1,-1,0.962122179163777,2.449489742783178
0.4893582429312905,-10.34785081583415,0.177490234375,0.008544921875,0.95166015625,-2,1,-1,0.9681078720794066,2.449489742783178
0.6270729576537566,-10.321308418197935,0.1767578125,0.010986328125,0.9501953125,-3,1,-1,0.9665584077449371,3.3166247903554
0.8636564195869076,-10.25659330849319,0.177490234375,0.01513671875,0.960693359375,-2,0,-1,0.977068899464225,2.23606797749979
0.39317808759415596,-10.5092742683557,0.18115234375,0.0068359375,0.9560546875,-1,1,-1,0.9730896501239465,1.7320508075688772
0.7666541797544886,-10.239670491970196,0.177001953125,0.013427734375,0.959228515625,-2,1,-1,0.9755149105209264,2.449489742783178
0.4461875608499131,-10.546015696115662,0.18115234375,0.0078125,0.95263671875,-2,1,-1,0.9697391013634207,2.449489742783178
0.4328910453662122,-10.385127547555875,0.17822265625,0.007568359375,0.951171875,-2,3,-1,0.9677543753739636,3.7416573867739413
0.7144852884859606,-10.493565300085761,0.180419921875,0.012451171875,0.953125,-2,2,-1,0.9701307363007534,3.0
0.3613672581267706,-10.446301136128197,0.179443359375,0.00634765625,0.952880859375,-2,1,-1,0.9696505268017401,2.449489742783178
0.4359323621753187,-10.364633381244024,0.178466796875,0.007568359375,0.955322265625,-1,1,-1,0.9718787521338939,1.7320508075688772
0.39668313554134527,-10.221706029046727,0.174560546875,0.0068359375,0.9482421875,-1,0,-1,0.9641998551760875,1.4142135623730951
0.5493241057676812,-10.180163602848436,0.175048828125,0.009521484375,0.954833984375,-1,0,-1,0.970793844546862,1.4142135623730951
0.41826062410436293,-10.426251902255,0.178955078125,0.00732421875,0.9521484375,-2,1,-1,0.9688473621787459,2.449489742783178
0.3310360060638557,-10.457880207686431,0.1806640625,0.005859375,0.958740234375,-2,0,-1,0.9756314225996539,2.23606797749979
0.6487505581490864,-10.644609660755604,0.18017578125,0.01123046875,0.9384765625,-3,1,-1,0.955681795337344,3.3166247903554
-0.06320709509488785,-10.514406225793836,0.17919921875,-0.0009765625,0.9453125,-2,1,-2,0.962148136375671,3.0
0.026974592435828268,-10.36233847200047,0.177734375,0.00048828125,0.95166015625,-1,1,-2,0.9681150755302771,2.449489742783178
0.06014408259607171,-10.559994892027168,0.181396484375,0.0009765625,0.953125,0,0,-2,0.9702334275023335,2.0
0.36613582493056274,-10.316779590114201,0.177490234375,0.006103515625,0.955078125,2,0,-1,0.9714495669127619,2.23606797749979
0.4655024830483935,-10.401557048861978,0.1787109375,0.0078125,0.95361328125,2,0,-1,0.9702458062340545,2.23606797749979
0.647619920394818,-10.584234736024683,0.1796875,0.0107421875,0.94140625,3,1,-1,0.9584616423141813,3.3166247903554
0.8105230895824009,-10.66588872680872,0.182861328125,0.013916015625,0.950927734375,0,0,-1,0.9684500383696025,1.0
0.4727785782345812,-10.357476460211553,0.1787109375,0.008056640625,0.957763671875,1,0,-2,0.9743273370914787,2.23606797749979
0.26689394916000225,-10.203516171509705,0.175537109375,0.004638671875,0.954833984375,-1,1,-1,0.9708463996750116,1.7320508075688772
0.35404663695774563,-10.417747612780092,0.177978515625,0.006103515625,0.94775390625,-1,1,-2,0.9643397076441459,2.449489742783178
0.3189579855438292,-10.152034049723417,0.177001953125,0.005615234375,0.96826171875,-1,0,-1,0.9843231066392046,1.4142135623730951
0.21682389640263883,-10.334080013870835,0.176513671875,0.003662109375,0.94775390625,0,1,-1,0.964058065790647,1.4142135623730951
0.5187577793643557,-10.406643171493846,0.176513671875,0.0087890625,0.94140625,0,0,-2,0.9578517899536894,2.0
0.5279709221364426,-10.477140613577086,0.179443359375,0.009033203125,0.950439453125,0,0,-1,0.9672728012505221,1.0
0.22918440460881567,-10.818268307442647,0.186279296875,0.00390625,0.954833984375,0,0,-2,0.9728428305490793,2.0
0.3853251672799542,-10.32350072469565,0.17724609375,0.006591796875,0.953125,0,0,-1,0.9694879551395547,1.0
0.5342529070306963,-10.270955816776548,0.177001953125,0.00927734375,0.956298828125,-1,1,-1,0.9725858364125856,1.7320508075688772
0.2239546526907584,-10.656372938958732,0.183837890625,0.00390625,0.95654296875,-1,1,-1,0.9740565075413107,1.7320508075688772
0.15477160635423784,-10.555653156437366,0.1806640625,0.002685546875,0.94921875,-1,1,-2,0.9662623613659926,2.449489742783178
0.35654982244373756,-10.799906218831714,0.18310546875,0.006103515625,0.940185546875,-1,0,-2,0.9578693690382758,2.23606797749979
0.24496503067952438,-10.454184075679452,0.1787109375,0.004150390625,0.94873046875,0,0,-2,0.9654244285593067,2.0
0.10297181756682211,-10.510120077926574,0.1796875,0.001708984375,0.94873046875,0,0,-2,0.9655982708240725,2.0
0.3673750888237709,-10.782921398981294,0.182373046875,0.006103515625,0.9375,1,1,-2,0.9550934148707422,2.449489742783178
0.534352121238996,-10.372906530716456,0.17724609375,0.009033203125,0.947998046875,1,1,-2,0.9644677668990012,2.449489742783178
0.8441088637243384,-10.426688441551226,0.1787109375,0.014404296875,0.951171875,1,0,-1,0.9679220106711117,1.4142135623730951
0.35446653397609007,-10.431073802372449,0.180419921875,0.006103515625,0.9599609375,0,0,-2,0.9767873886564284,2.0
0.31087662121535403,-10.371578613471844,0.177490234375,0.00537109375,0.949462890625,-1,1,-2,0.9659251589127101,2.449489742783178
0.31858197058864735,-10.595584076492422,0.1796875,0.00537109375,0.9404296875,0,1,-2,0.957457280214459,2.23606797749979
0.5096886540988115,-10.457888990708017,0.1806640625,0.0087890625,0.958251953125,0,1,-2,0.975173603399164,2.23606797749979
0.046378525774534815,-10.567029422255699,0.179931640625,0.000732421875,0.9443359375,0,1,-1,0.9613252803259732,1.4142135623730951
0.4495910253141495,-10.443999250065856,0.18017578125,0.0078125,0.9560546875,-1,3,-2,0.9729156760973792,3.7416573867739413
0.012760139133929057,-10.57679356341978,0.18359375,0.000244140625,0.962646484375,-1,1,-2,0.9799974380187197,2.449489742783178
0.4055780172732036,-10.537779695788725,0.17822265625,0.0068359375,0.93798828125,0,1,-1,0.9547942506135229,1.4142135623730951
0.3162783899194392,-10.67444956007032,0.182373046875,0.00537109375,0.947265625,0,1,-1,0.9646765992710629,1.4142135623730951
0.33794830162139533,-10.264268990725459,0.178955078125,0.005859375,0.967529296875,0,1,-1,0.983957414004055,1.4142135623730951
0.4635085587085728,-10.310242886992933,0.1796875,0.008056640625,0.967041015625,0,1,-2,0.9836263686051945,2.23606797749979
0.37240283501537386,-10.424665166011964,0.178466796875,0.00634765625,0.94970703125,0,1,-2,0.9663509380822162,2.23606797749979
0.3979808464679588,-10.19916587017988,0.17578125,0.0068359375,0.95703125,0,0,-1,0.9730645360764254,1.0
0.11697191316301889,-10.477722893880076,0.179443359375,0.001953125,0.950439453125,0,0,-2,0.9672325924913822,2.0
0.44017590751756397,-10.34863371730911,0.180419921875,0.007568359375,0.9677734375,1,0,-2,0.9844765383713198,2.23606797749979
0.7175327481803317,-10.435252164547169,0.1787109375,0.01220703125,0.949951171875,1,1,-1,0.966692215620232,1.7320508075688772
